# OpenSignals Text File Format
# {"00:07:80:3B:46:58": {"sensor": ["EMG", "EMG"], "device name": "00:07:80:3B:46:58", "column": ["nSeq", "DI", "ACC X", "ACC Y"], "sync interval": 2, "time": "16:9:45.936", "comments": "", "device connection": "BTH00:07:80:3B:46:58", "channels": [1, 2], "date": "2016-8-24", "mode": 0, "digital IO": [0, 1], "firmware version": 772, "device": "biosignalsplux", "position": 0, "sampling rate": 1000, "label": ["ACC X", "ACC Y"], "resolution": [16, 16], "special": [{}, {}]}}
# EndOfHeader
0	0	32897	32820	
1	0	33052	32431	
2	0	32989	32249	
3	0	32958	32830	
4	0	32992	33085	
5	0	32737	32606	
6	0	32642	32383	
7	0	32660	32012	
8	0	32728	31794	
9	0	32760	32290	
10	0	32716	33007	
11	0	32722	33095	
12	0	32664	33167	
13	0	32740	33311	
14	0	32673	33186	
15	0	32412	32664	
16	0	32420	32732	
17	0	32536	32842	
18	0	32660	32603	
19	0	32832	32354	
20	0	32934	32420	
21	0	32980	32306	
22	0	32984	31978	
23	0	33004	32037	
24	0	33060	32593	
25	0	32841	32984	
26	0	32792	33339	
27	0	32784	33556	
28	0	32656	33626	
29	0	32738	33358	
30	0	32675	33087	
31	0	32658	32850	
32	0	32602	32600	
33	0	32557	32447	
34	0	32652	32404	
35	0	32438	32403	
36	0	32478	32806	
37	0	32548	32612	
38	0	32732	32439	
39	0	32824	32746	
40	0	32857	32862	
41	0	32955	32583	
42	0	33000	32438	
43	0	32986	32784	
44	0	32994	32864	
45	0	32748	32239	
46	0	32736	32130	
47	0	32737	32290	
48	0	32722	32500	
49	0	32632	32808	
50	0	32620	32801	
51	0	32642	33197	
52	0	32666	33169	
53	0	32646	33099	
54	0	32594	33315	
55	0	32468	32697	
56	0	32498	32775	
57	0	32576	33024	
58	0	32728	33183	
59	0	32840	32918	
60	0	32840	33143	
61	0	33050	32901	
62	0	33064	33226	
63	0	33017	32954	
64	0	32907	32994	
65	0	32741	32562	
66	0	32728	31895	
67	0	32696	32002	
68	0	32720	31717	
69	0	32770	31905	
70	0	32716	32315	
71	0	32682	32260	
72	0	32658	32629	
73	0	32644	32994	
74	0	32627	33085	
75	0	32380	33101	
76	0	32482	33217	
77	0	32706	33138	
78	0	32724	33044	
79	0	32654	33166	
80	0	32755	33023	
81	0	32960	32682	
82	0	33036	32407	
83	0	33020	32250	
84	0	33088	32498	
85	0	32866	32374	
86	0	32728	32411	
87	0	32704	32621	
88	0	32728	32700	
89	0	32681	32611	
90	0	32676	32631	
91	0	32684	32642	
92	0	32620	32520	
93	0	32482	33016	
94	0	32600	33799	
95	0	32402	34175	
96	0	32484	34110	
97	0	32556	33364	
98	0	32697	32678	
99	0	32942	32217	
100	0	32924	32122	
101	0	32932	32220	
102	0	33028	32045	
103	0	33084	32142	
104	0	33062	32023	
105	0	32836	31701	
106	0	32742	31812	
107	0	32712	32295	
108	0	32628	32592	
109	0	32584	32342	
110	0	32624	32453	
111	0	32614	32930	
112	0	32648	33149	
113	0	32689	33471	
114	0	32710	34061	
115	0	32468	33332	
116	0	32456	32919	
117	0	32548	32772	
118	0	32660	32604	
119	0	32746	32715	
120	0	32888	32768	
121	0	33088	32789	
122	0	33112	32321	
123	0	33092	32410	
124	0	33032	32542	
125	0	32800	32438	
126	0	32712	32814	
127	0	32708	32617	
128	0	32740	32831	
129	0	32712	32446	
130	0	32650	32852	
131	0	32714	32890	
132	0	32642	32788	
133	0	32648	32954	
134	0	32560	32774	
135	0	32368	32807	
136	0	32404	32764	
137	0	32491	32877	
138	0	32608	32973	
139	0	32907	33135	
140	0	32899	32944	
141	0	33020	32828	
142	0	33034	33027	
143	0	33096	32603	
144	0	33000	32803	
145	0	32788	32541	
146	0	32728	32545	
147	0	32694	32642	
148	0	32690	32706	
149	0	32676	32498	
150	0	32646	32843	
151	0	32654	33146	
152	0	32620	33193	
153	0	32660	33281	
154	0	32710	32359	
155	0	32496	31284	
156	0	32482	31780	
157	0	32576	32199	
158	0	32680	32326	
159	0	32806	32882	
160	0	32864	32647	
161	0	33001	32982	
162	0	33102	32944	
163	0	33073	32988	
164	0	33048	33089	
165	0	32832	32748	
166	0	32720	32486	
167	0	32622	32703	
168	0	32620	33023	
169	0	32626	33140	
170	0	32660	32980	
171	0	32664	33287	
172	0	32600	33431	
173	0	32594	32795	
174	0	32560	32501	
175	0	32424	32071	
176	0	32504	32332	
177	0	32672	32719	
178	0	32792	32715	
179	0	32916	32400	
180	0	32984	32986	
181	0	33048	32827	
182	0	33040	32849	
183	0	33042	33092	
184	0	32940	32963	
185	0	32724	32482	
186	0	32741	32359	
187	0	32740	32466	
188	0	32775	32496	
189	0	32661	32519	
190	0	32544	32564	
191	0	32518	32656	
192	0	32490	32630	
193	0	32544	33125	
194	0	32628	33248	
195	0	32478	32838	
196	0	32628	33127	
197	0	32750	32963	
198	0	32829	33351	
199	0	32896	32983	
200	0	32972	32455	
201	0	33032	32466	
202	0	32974	32632	
203	0	32978	32646	
204	0	32976	32343	
205	0	32768	32175	
206	0	32736	32167	
207	0	32705	31983	
208	0	32656	32486	
209	0	32676	32775	
210	0	32620	32619	
211	0	32708	33183	
212	0	32744	33096	
213	0	32720	33133	
214	0	32756	32755	
215	0	32420	32103	
216	0	32480	32359	
217	0	32484	33223	
218	0	32608	34168	
219	0	32698	34247	
220	0	32870	33965	
221	0	33048	33151	
222	0	33053	32442	
223	0	33090	32387	
224	0	32976	31919	
225	0	32698	31623	
226	0	32644	32093	
227	0	32582	32427	
228	0	32636	32399	
229	0	32674	32491	
230	0	32644	32097	
231	0	32649	32124	
232	0	32700	32386	
233	0	32684	32559	
234	0	32672	33178	
235	0	32419	33247	
236	0	32408	33151	
237	0	32552	33365	
238	0	32608	33261	
239	0	32748	33415	
240	0	32908	33103	
241	0	33061	33195	
242	0	33118	32584	
243	0	33058	32302	
244	0	32964	32332	
245	0	32828	32212	
246	0	32738	31842	
247	0	32672	31919	
248	0	32588	32214	
249	0	32617	32356	
250	0	32648	32784	
251	0	32678	33130	
252	0	32736	33304	
253	0	32744	33616	
254	0	32664	33503	
255	0	32448	33526	
256	0	32508	33351	
257	0	32660	33077	
258	0	32712	32794	
259	0	32804	32681	
260	0	32884	32253	
261	0	33024	31789	
262	0	33069	31591	
263	0	33170	32324	
264	0	33052	33051	
265	0	32775	32818	
266	0	32662	32594	
267	0	32706	32694	
268	0	32680	32925	
269	0	32616	32751	
270	0	32576	32800	
271	0	32502	32892	
272	0	32552	32801	
273	0	32620	32583	
274	0	32658	32542	
275	0	32417	32424	
276	0	32564	32583	
277	0	32672	32755	
278	0	32677	33117	
279	0	32848	33159	
280	0	32871	33005	
281	0	33022	33031	
282	0	33060	32742	
283	0	33042	32936	
284	0	33016	32775	
285	0	32786	32357	
286	0	32746	32635	
287	0	32716	32647	
288	0	32720	32505	
289	0	32631	32789	
290	0	32613	32686	
291	0	32644	33087	
292	0	32578	33191	
293	0	32640	32884	
294	0	32658	32991	
295	0	32436	32939	
296	0	32465	33078	
297	0	32556	33235	
298	0	32676	33330	
299	0	32830	32863	
300	0	32897	32187	
301	0	32984	32279	
302	0	32994	32204	
303	0	33108	32199	
304	0	33049	32247	
305	0	32828	31797	
306	0	32788	31623	
307	0	32756	32022	
308	0	32732	32754	
309	0	32666	32754	
310	0	32694	33111	
311	0	32756	33250	
312	0	32584	33334	
313	0	32580	33375	
314	0	32601	33071	
315	0	32440	32750	
316	0	32397	32903	
317	0	32548	32841	
318	0	32696	32786	
319	0	32797	32659	
320	0	32880	32862	
321	0	32872	33442	
322	0	33060	33309	
323	0	33065	32836	
324	0	33030	32730	
325	0	32795	32175	
326	0	32760	32139	
327	0	32714	32218	
328	0	32722	31972	
329	0	32674	31728	
330	0	32642	32013	
331	0	32645	32576	
332	0	32668	32775	
333	0	32704	33858	
334	0	32696	34205	
335	0	32444	33895	
336	0	32476	33272	
337	0	32612	32696	
338	0	32626	32647	
339	0	32762	32333	
340	0	32755	32257	
341	0	32904	32456	
342	0	33024	32667	
343	0	32982	32632	
344	0	32928	32734	
345	0	32788	32448	
346	0	32686	32483	
347	0	32733	32222	
348	0	32788	32169	
349	0	32697	32556	
350	0	32705	32923	
351	0	32736	32959	
352	0	32728	33171	
353	0	32706	33495	
354	0	32620	33410	
355	0	32370	33303	
356	0	32452	33023	
357	0	32602	33024	
358	0	32721	32495	
359	0	32816	32499	
360	0	32764	32850	
361	0	32980	33034	
362	0	33024	32817	
363	0	33120	32802	
364	0	33074	32413	
365	0	32804	32324	
366	0	32728	32351	
367	0	32708	32030	
368	0	32686	32175	
369	0	32688	32410	
370	0	32713	32233	
371	0	32702	32719	
372	0	32598	32731	
373	0	32594	32854	
374	0	32581	33158	
375	0	32444	32903	
376	0	32452	32677	
377	0	32570	32800	
378	0	32700	32979	
379	0	32832	33050	
380	0	32988	32813	
381	0	33052	32956	
382	0	33042	32804	
383	0	33113	33031	
384	0	33036	32933	
385	0	32788	32706	
386	0	32744	32804	
387	0	32680	32402	
388	0	32658	32610	
389	0	32657	32450	
390	0	32584	32099	
391	0	32660	31850	
392	0	32659	32302	
393	0	32604	32930	
394	0	32576	33867	
395	0	32392	33908	
396	0	32425	33577	
397	0	32606	33089	
398	0	32804	32056	
399	0	32874	31867	
400	0	32953	32390	
401	0	32980	32395	
402	0	33056	33127	
403	0	33044	33283	
404	0	32964	33377	
405	0	32782	33029	
406	0	32754	32672	
407	0	32704	32544	
408	0	32634	32336	
409	0	32730	31919	
410	0	32612	31866	
411	0	32648	32262	
412	0	32603	32674	
413	0	32648	32470	
414	0	32688	32854	
415	0	32524	32894	
416	0	32496	32919	
417	0	32564	33116	
418	0	32760	33277	
419	0	32822	33084	
420	0	32878	32661	
421	0	32965	32455	
422	0	33036	32828	
423	0	33010	32786	
424	0	32877	32885	
425	0	32685	32573	
426	0	32658	32741	
427	0	32650	32968	
428	0	32632	32854	
429	0	32648	33190	
430	0	32664	32961	
431	0	32656	32712	
432	0	32648	33038	
433	0	32644	33068	
434	0	32670	32434	
435	0	32454	31940	
436	0	32502	32554	
437	0	32580	33057	
438	0	32784	32958	
439	0	32856	32378	
440	0	32952	31978	
441	0	33060	31709	
442	0	33062	31874	
443	0	33074	32442	
444	0	32928	33635	
445	0	32784	33985	
446	0	32724	33252	
447	0	32736	32756	
448	0	32696	32201	
449	0	32644	32470	
450	0	32640	32591	
451	0	32562	32569	
452	0	32632	32833	
453	0	32610	32927	
454	0	32596	32892	
455	0	32408	32775	
456	0	32356	32998	
457	0	32504	32954	
458	0	32696	33188	
459	0	32832	32962	
460	0	32890	33191	
461	0	32992	32997	
462	0	33120	32710	
463	0	33104	32711	
464	0	33108	32843	
465	0	32832	32398	
466	0	32764	32380	
467	0	32700	32600	
468	0	32642	32808	
469	0	32654	32834	
470	0	32641	32730	
471	0	32621	33043	
472	0	32626	32903	
473	0	32740	32935	
474	0	32689	32948	
475	0	32452	32213	
476	0	32364	32125	
477	0	32408	32207	
478	0	32592	32447	
479	0	32801	32203	
480	0	32976	32500	
481	0	33108	32811	
482	0	33133	33034	
483	0	33146	33232	
484	0	33104	32717	
485	0	32784	32338	
486	0	32722	32578	
487	0	32706	33192	
488	0	32684	33255	
489	0	32576	33023	
490	0	32570	32659	
491	0	32536	32516	
492	0	32517	32696	
493	0	32632	32669	
494	0	32603	32356	
495	0	32376	31942	
496	0	32528	32574	
497	0	32691	32711	
498	0	32802	33163	
499	0	32832	33330	
500	0	32888	33220	
501	0	32952	33616	
502	0	33002	33589	
503	0	33072	33042	
504	0	32999	32760	
505	0	32745	32135	
506	0	32700	31571	
507	0	32704	31035	
508	0	32684	31452	
509	0	32690	32243	
510	0	32696	33033	
511	0	32752	33954	
512	0	32654	33430	
513	0	32550	33356	
514	0	32512	33199	
515	0	32362	33100	
516	0	32468	32809	
517	0	32634	32994	
518	0	32736	32999	
519	0	32872	32578	
520	0	32936	32462	
521	0	32980	32190	
522	0	32996	32587	
523	0	33024	33014	
524	0	33040	32973	
525	0	32812	32054	
526	0	32736	32845	
527	0	32725	33532	
528	0	32708	33287	
529	0	32633	32391	
530	0	32708	32253	
531	0	32740	32175	
532	0	32616	32395	
533	0	32576	32882	
534	0	32616	32498	
535	0	32420	32024	
536	0	32507	32379	
537	0	32592	32942	
538	0	32728	32967	
539	0	32744	32325	
540	0	32914	32300	
541	0	33056	31969	
542	0	32992	32579	
543	0	32963	32368	
544	0	32888	31688	
545	0	32803	31840	
546	0	32690	32826	
547	0	32716	33047	
548	0	32811	32097	
549	0	32772	31779	
550	0	32740	32914	
551	0	32714	34004	
552	0	32706	35147	
553	0	32688	35230	
554	0	32581	33859	
555	0	32302	32944	
556	0	32448	32583	
557	0	32594	30532	
558	0	32745	29240	
559	0	32868	30178	
560	0	32964	32212	
561	0	33048	34011	
562	0	33041	35282	
563	0	33082	34951	
564	0	32966	33510	
565	0	32800	33977	
566	0	32670	34762	
567	0	32672	34689	
568	0	32608	33798	
569	0	32613	32576	
570	0	32668	32336	
571	0	32680	31768	
572	0	32656	30131	
573	0	32636	30924	
574	0	32612	31282	
575	0	32378	31643	
576	0	32490	33175	
577	0	32610	33283	
578	0	32756	32942	
579	0	32852	32902	
580	0	32972	31793	
581	0	33056	31669	
582	0	33080	30884	
583	0	33096	30985	
584	0	32984	32661	
585	0	32760	34419	
586	0	32662	34610	
587	0	32658	34863	
588	0	32590	34032	
589	0	32578	32756	
590	0	32633	30229	
591	0	32642	28831	
592	0	32628	31604	
593	0	32616	35346	
594	0	32622	36174	
595	0	32399	36159	
596	0	32464	36708	
597	0	32672	34115	
598	0	32692	34231	
599	0	32862	33971	
600	0	32968	33422	
601	0	33138	32555	
602	0	33576	32461	
603	0	33921	31060	
604	0	33578	28024	
605	0	32956	25959	
606	0	32440	26186	
607	0	32048	28359	
608	0	31852	32440	
609	0	31930	34722	
610	0	31938	35409	
611	0	32210	35925	
612	0	32504	35492	
613	0	32664	35090	
614	0	32588	33530	
615	0	32396	32993	
616	0	32552	33174	
617	0	32704	34495	
618	0	32868	32447	
619	0	32940	30783	
620	0	33042	32148	
621	0	33036	35172	
622	0	33108	34102	
623	0	33020	31299	
624	0	33072	30139	
625	0	33108	30310	
626	0	33242	31366	
627	0	33380	31812	
628	0	33340	31890	
629	0	33287	32450	
630	0	32976	34414	
631	0	32584	35743	
632	0	32274	36346	
633	0	32038	35099	
634	0	31824	32836	
635	0	31704	31197	
636	0	31872	30352	
637	0	32018	31343	
638	0	32252	33394	
639	0	32522	33960	
640	0	32730	34930	
641	0	32882	32812	
642	0	33088	32131	
643	0	33345	31239	
644	0	33378	31181	
645	0	33258	32937	
646	0	33656	32111	
647	0	33992	30932	
648	0	33660	31460	
649	0	33202	33016	
650	0	32801	32319	
651	0	32700	31510	
652	0	32384	29878	
653	0	32114	29734	
654	0	31909	32852	
655	0	31706	34751	
656	0	31824	36748	
657	0	31925	36858	
658	0	32201	34603	
659	0	32526	33821	
660	0	32800	32100	
661	0	33118	31640	
662	0	33300	32507	
663	0	33298	32338	
664	0	33125	30782	
665	0	32984	29428	
666	0	32960	31372	
667	0	32832	33148	
668	0	32916	32748	
669	0	32816	34015	
670	0	32590	34887	
671	0	32644	34266	
672	0	32648	32093	
673	0	32756	29730	
674	0	32801	30056	
675	0	32578	31239	
676	0	32477	32460	
677	0	32364	36818	
678	0	32384	40115	
679	0	32534	39290	
680	0	32716	33636	
681	0	32906	31696	
682	0	33016	32510	
683	0	33156	30912	
684	0	33100	27692	
685	0	32962	27674	
686	0	32904	29970	
687	0	32872	29134	
688	0	32832	27327	
689	0	32700	28495	
690	0	32720	32637	
691	0	32838	37968	
692	0	33056	39849	
693	0	33104	40592	
694	0	32912	39597	
695	0	32528	35275	
696	0	32320	31004	
697	0	32230	30013	
698	0	32179	31102	
699	0	32464	33196	
700	0	32678	33755	
701	0	32987	32837	
702	0	33014	32020	
703	0	33020	31844	
704	0	33115	31248	
705	0	33312	30939	
706	0	33312	29484	
707	0	33672	29737	
708	0	34232	31744	
709	0	34435	31751	
710	0	34598	32293	
711	0	34270	33808	
712	0	33312	35706	
713	0	31998	35355	
714	0	30732	34072	
715	0	29794	33932	
716	0	29540	33834	
717	0	29986	32840	
718	0	31006	32288	
719	0	32592	31873	
720	0	33610	31449	
721	0	34264	32137	
722	0	34014	32859	
723	0	33132	32000	
724	0	32023	31222	
725	0	31400	32372	
726	0	31196	32591	
727	0	31202	33230	
728	0	31270	33438	
729	0	31690	33956	
730	0	32108	33321	
731	0	32736	33047	
732	0	33188	32402	
733	0	33454	31615	
734	0	33626	31340	
735	0	33581	31939	
736	0	33508	32552	
737	0	33378	33118	
738	0	33668	33554	
739	0	34013	33799	
740	0	33910	33386	
741	0	33620	32741	
742	0	33394	32252	
743	0	33090	31879	
744	0	32752	30472	
745	0	32554	29499	
746	0	32320	29575	
747	0	32488	31040	
748	0	32652	32736	
749	0	32808	34969	
750	0	32944	37255	
751	0	32937	36404	
752	0	32868	34722	
753	0	32770	33695	
754	0	32644	32957	
755	0	32386	31796	
756	0	32250	31486	
757	0	32094	32295	
758	0	32134	33163	
759	0	32340	32825	
760	0	32612	32899	
761	0	32892	32844	
762	0	33172	31154	
763	0	33154	29968	
764	0	33030	30152	
765	0	32914	30998	
766	0	33084	32703	
767	0	33132	34145	
768	0	33132	34354	
769	0	33768	33794	
770	0	34680	32887	
771	0	34873	32426	
772	0	34328	31791	
773	0	33520	32944	
774	0	32544	34382	
775	0	31512	34512	
776	0	30864	33772	
777	0	30496	32843	
778	0	30554	33784	
779	0	30842	34151	
780	0	31256	32511	
781	0	32136	32193	
782	0	33538	32588	
783	0	34280	31807	
784	0	34306	31344	
785	0	33954	31661	
786	0	32928	31563	
787	0	32128	31716	
788	0	31608	31484	
789	0	31108	31750	
790	0	30812	32820	
791	0	30925	33164	
792	0	31370	33196	
793	0	32058	33395	
794	0	33028	33652	
795	0	33720	33498	
796	0	33864	33150	
797	0	33658	33371	
798	0	33237	33051	
799	0	33000	32995	
800	0	33073	32871	
801	0	33140	33271	
802	0	33204	32676	
803	0	33389	32482	
804	0	34194	32326	
805	0	34301	31708	
806	0	33709	32135	
807	0	32833	31985	
808	0	32146	32160	
809	0	31822	32306	
810	0	31824	32782	
811	0	31866	33090	
812	0	32085	32976	
813	0	32457	33407	
814	0	33438	33696	
815	0	35136	34164	
816	0	37292	33898	
817	0	37228	33586	
818	0	35588	32982	
819	0	33316	32280	
820	0	30818	32212	
821	0	28944	31638	
822	0	28009	32100	
823	0	28084	31440	
824	0	28757	30972	
825	0	29876	32055	
826	0	31006	32877	
827	0	32150	33466	
828	0	33082	33705	
829	0	33828	34087	
830	0	34044	33810	
831	0	33974	33123	
832	0	33620	31898	
833	0	33500	31551	
834	0	33348	31635	
835	0	33058	32144	
836	0	32897	33142	
837	0	32796	33706	
838	0	32620	33731	
839	0	32564	33839	
840	0	32782	33134	
841	0	32868	32475	
842	0	32760	32486	
843	0	32937	32775	
844	0	33218	32290	
845	0	33184	32412	
846	0	33182	32621	
847	0	33108	31533	
848	0	33088	31793	
849	0	32988	31916	
850	0	33093	32415	
851	0	33136	32829	
852	0	33120	32994	
853	0	33908	33454	
854	0	34178	33832	
855	0	34044	33522	
856	0	33825	33874	
857	0	33400	33810	
858	0	32914	33010	
859	0	32452	32838	
860	0	31858	32441	
861	0	31144	32414	
862	0	30502	32527	
863	0	29940	31776	
864	0	29963	31097	
865	0	31148	31415	
866	0	32610	32527	
867	0	33442	32493	
868	0	33476	32804	
869	0	33144	33586	
870	0	32961	33823	
871	0	32736	33251	
872	0	32772	33211	
873	0	33556	33172	
874	0	34124	32868	
875	0	34524	31232	
876	0	33848	30514	
877	0	32904	31558	
878	0	32010	31500	
879	0	31624	32058	
880	0	31564	33141	
881	0	31914	34403	
882	0	32473	34783	
883	0	33041	33682	
884	0	33277	33055	
885	0	33301	32748	
886	0	33352	32248	
887	0	33208	31873	
888	0	33073	31209	
889	0	32932	32424	
890	0	32760	32704	
891	0	32640	32731	
892	0	32576	33146	
893	0	32420	33414	
894	0	32300	33086	
895	0	32428	32738	
896	0	32722	33074	
897	0	32972	33931	
898	0	32866	33716	
899	0	32864	33333	
900	0	32890	31876	
901	0	32980	31030	
902	0	32965	31463	
903	0	32824	32414	
904	0	32768	33149	
905	0	32876	32771	
906	0	33008	32677	
907	0	32892	33555	
908	0	32736	34026	
909	0	32774	33828	
910	0	32864	32821	
911	0	33224	32434	
912	0	33550	32387	
913	0	33375	31962	
914	0	33436	31128	
915	0	33233	31329	
916	0	32649	32302	
917	0	32058	33006	
918	0	31648	33178	
919	0	31613	33222	
920	0	31522	33414	
921	0	31702	33863	
922	0	32417	33690	
923	0	32964	33177	
924	0	33185	31833	
925	0	33376	31421	
926	0	33396	32450	
927	0	33544	33134	
928	0	33164	33387	
929	0	32612	33010	
930	0	31928	32658	
931	0	31616	32394	
932	0	31582	32592	
933	0	31512	32914	
934	0	32760	33016	
935	0	33718	33383	
936	0	33584	33171	
937	0	32906	32719	
938	0	32203	32542	
939	0	31842	32786	
940	0	31496	32898	
941	0	31576	32967	
942	0	31860	33006	
943	0	32672	33148	
944	0	35002	31680	
945	0	36294	30353	
946	0	35846	30765	
947	0	34148	31731	
948	0	32576	32756	
949	0	31382	33284	
950	0	30632	34183	
951	0	30684	34265	
952	0	31184	34217	
953	0	31980	33349	
954	0	33381	32687	
955	0	34908	33276	
956	0	35613	32995	
957	0	34290	32941	
958	0	32576	33042	
959	0	31148	32715	
960	0	30214	32477	
961	0	29908	31833	
962	0	30253	31478	
963	0	31243	31818	
964	0	32152	32142	
965	0	32775	32334	
966	0	33228	32381	
967	0	33433	32647	
968	0	33592	32538	
969	0	34100	32731	
970	0	34352	33059	
971	0	34016	33561	
972	0	33750	33331	
973	0	33575	33095	
974	0	33168	33540	
975	0	32612	33846	
976	0	32232	33487	
977	0	32136	31723	
978	0	32328	31295	
979	0	32500	31823	
980	0	32544	32039	
981	0	32632	32183	
982	0	32784	32795	
983	0	32957	33206	
984	0	33089	33351	
985	0	33008	33107	
986	0	33000	32480	
987	0	33243	32171	
988	0	33588	32164	
989	0	34183	32733	
990	0	34032	33042	
991	0	33400	31699	
992	0	32908	31469	
993	0	32150	32362	
994	0	31480	34034	
995	0	31088	35421	
996	0	30939	35103	
997	0	31144	34126	
998	0	31618	33307	
999	0	32204	32547	
1000	0	33010	32079	
1001	0	34228	31744	
1002	0	35248	31712	
1003	0	35170	32049	
1004	0	34218	32720	
1005	0	33084	32639	
1006	0	32000	31736	
1007	0	31149	30627	
1008	0	30752	30577	
1009	0	30996	32955	
1010	0	31360	33951	
1011	0	31784	33068	
1012	0	32432	32434	
1013	0	32984	32556	
1014	0	33202	32836	
1015	0	33244	33142	
1016	0	33124	33460	
1017	0	32845	34264	
1018	0	32920	34279	
1019	0	33948	33936	
1020	0	34226	33543	
1021	0	34018	33247	
1022	0	33441	32430	
1023	0	32926	32025	
1024	0	33402	32300	
1025	0	33278	32263	
1026	0	32541	31276	
1027	0	31704	31337	
1028	0	31168	32477	
1029	0	31172	33003	
1030	0	31340	32952	
1031	0	31688	32960	
1032	0	32124	32953	
1033	0	32405	32328	
1034	0	32388	31508	
1035	0	33052	31021	
1036	0	33722	31749	
1037	0	33736	32629	
1038	0	34466	33316	
1039	0	34426	33695	
1040	0	33274	33999	
1041	0	32216	34754	
1042	0	31464	34294	
1043	0	31088	33072	
1044	0	30996	32866	
1045	0	30820	32875	
1046	0	30960	32334	
1047	0	31498	31696	
1048	0	32452	31572	
1049	0	33384	31844	
1050	0	35129	32211	
1051	0	35474	32353	
1052	0	34980	32294	
1053	0	33888	32412	
1054	0	32648	32763	
1055	0	31915	33053	
1056	0	32762	33285	
1057	0	33237	33422	
1058	0	33064	33318	
1059	0	32888	32895	
1060	0	32588	32704	
1061	0	32328	32584	
1062	0	32411	32740	
1063	0	32964	33195	
1064	0	33526	32963	
1065	0	34760	32558	
1066	0	34396	32534	
1067	0	32989	32472	
1068	0	31570	32134	
1069	0	30622	31938	
1070	0	30437	32222	
1071	0	30698	32470	
1072	0	31480	32838	
1073	0	32224	33127	
1074	0	33052	33115	
1075	0	33454	33238	
1076	0	34124	33287	
1077	0	34574	33260	
1078	0	33924	32485	
1079	0	32740	32111	
1080	0	32186	32447	
1081	0	31503	32598	
1082	0	31000	33040	
1083	0	30930	32887	
1084	0	31656	32147	
1085	0	32152	31722	
1086	0	32372	31619	
1087	0	32898	32233	
1088	0	34439	32953	
1089	0	34624	32843	
1090	0	33826	32366	
1091	0	33144	32536	
1092	0	32644	33260	
1093	0	32308	33444	
1094	0	32793	33120	
1095	0	33836	32786	
1096	0	34614	32890	
1097	0	34356	33094	
1098	0	33736	33090	
1099	0	32852	33110	
1100	0	32040	32775	
1101	0	31388	32480	
1102	0	30892	32836	
1103	0	30768	33065	
1104	0	31854	32918	
1105	0	32738	32421	
1106	0	32926	32573	
1107	0	34112	32606	
1108	0	34074	32415	
1109	0	33034	32400	
1110	0	32196	33168	
1111	0	32828	33319	
1112	0	33434	32743	
1113	0	33784	32692	
1114	0	34392	32735	
1115	0	33642	33618	
1116	0	32456	34653	
1117	0	30816	33869	
1118	0	29832	32565	
1119	0	29912	32366	
1120	0	30696	31686	
1121	0	31404	30776	
1122	0	32278	31079	
1123	0	33164	30883	
1124	0	33736	31870	
1125	0	33688	32711	
1126	0	33761	32703	
1127	0	33762	32510	
1128	0	33794	32356	
1129	0	34649	33158	
1130	0	35740	33867	
1131	0	35984	34158	
1132	0	34564	34382	
1133	0	32720	33668	
1134	0	31329	33108	
1135	0	29940	32792	
1136	0	29144	31968	
1137	0	29404	31546	
1138	0	30304	32000	
1139	0	31656	32734	
1140	0	32608	33403	
1141	0	32935	33727	
1142	0	33172	33024	
1143	0	33142	32212	
1144	0	34126	31696	
1145	0	36104	31714	
1146	0	35592	32191	
1147	0	34002	32566	
1148	0	32552	32803	
1149	0	31680	33118	
1150	0	31776	33039	
1151	0	32426	33196	
1152	0	32320	32918	
1153	0	31816	32996	
1154	0	31556	33088	
1155	0	31339	33118	
1156	0	31248	33062	
1157	0	31352	32813	
1158	0	32408	32634	
1159	0	33291	32561	
1160	0	33709	32284	
1161	0	33628	32519	
1162	0	33421	33056	
1163	0	32996	33450	
1164	0	33720	33142	
1165	0	33742	32927	
1166	0	33638	32711	
1167	0	33680	32327	
1168	0	33212	32516	
1169	0	33918	32671	
1170	0	34434	32768	
1171	0	33532	32426	
1172	0	32456	32845	
1173	0	31770	33040	
1174	0	31252	33145	
1175	0	30988	32998	
1176	0	31354	32742	
1177	0	31540	32549	
1178	0	31712	32751	
1179	0	32778	32873	
1180	0	34146	32874	
1181	0	34548	32537	
1182	0	33722	32034	
1183	0	33266	32583	
1184	0	33272	33202	
1185	0	32262	33253	
1186	0	30672	32560	
1187	0	29632	32167	
1188	0	30078	32026	
1189	0	31168	31980	
1190	0	32198	31652	
1191	0	32692	32199	
1192	0	33428	32762	
1193	0	34756	32912	
1194	0	35044	33320	
1195	0	34464	33410	
1196	0	33650	33317	
1197	0	33434	33191	
1198	0	33968	32686	
1199	0	35008	32386	
1200	0	34736	32711	
1201	0	33954	33106	
1202	0	32733	33223	
1203	0	31784	32720	
1204	0	31117	32330	
1205	0	30602	32629	
1206	0	30186	33380	
1207	0	30898	33591	
1208	0	31712	32928	
1209	0	31981	32140	
1210	0	31940	31630	
1211	0	32656	31898	
1212	0	33400	31797	
1213	0	33144	32602	
1214	0	33860	33414	
1215	0	33930	33515	
1216	0	33077	33630	
1217	0	32623	33365	
1218	0	33108	33104	
1219	0	33240	33203	
1220	0	35212	32940	
1221	0	35808	32429	
1222	0	34720	31604	
1223	0	32953	30825	
1224	0	31303	30810	
1225	0	31010	31538	
1226	0	31736	32583	
1227	0	31905	33341	
1228	0	32008	33941	
1229	0	32224	33921	
1230	0	32049	33795	
1231	0	31256	33277	
1232	0	30400	32926	
1233	0	29932	33419	
1234	0	30008	33516	
1235	0	30932	31975	
1236	0	32112	32351	
1237	0	32994	32703	
1238	0	34544	32888	
1239	0	35580	32866	
1240	0	35442	32351	
1241	0	34938	32953	
1242	0	34452	33735	
1243	0	33792	34029	
1244	0	32636	33179	
1245	0	31986	32179	
1246	0	31448	31645	
1247	0	30876	31268	
1248	0	31097	32039	
1249	0	32110	33035	
1250	0	33562	32920	
1251	0	34156	32550	
1252	0	34522	32345	
1253	0	34068	32635	
1254	0	33792	32703	
1255	0	33988	32770	
1256	0	33096	32677	
1257	0	32148	33380	
1258	0	31786	33922	
1259	0	32724	33466	
1260	0	34434	32366	
1261	0	34048	32075	
1262	0	32147	32410	
1263	0	30716	32657	
1264	0	30618	32906	
1265	0	32192	32893	
1266	0	33486	33007	
1267	0	33258	32952	
1268	0	32868	32637	
1269	0	32632	32179	
1270	0	32144	31995	
1271	0	31672	31855	
1272	0	31176	31974	
1273	0	30992	32386	
1274	0	31545	32921	
1275	0	32688	33245	
1276	0	34752	33001	
1277	0	36132	33014	
1278	0	37288	33034	
1279	0	35732	32966	
1280	0	33476	32706	
1281	0	31348	33011	
1282	0	30324	33431	
1283	0	30132	33316	
1284	0	30236	33366	
1285	0	30877	33057	
1286	0	31064	32308	
1287	0	31318	32335	
1288	0	32032	32329	
1289	0	33442	32705	
1290	0	33700	33184	
1291	0	33478	32742	
1292	0	33296	31770	
1293	0	33336	31436	
1294	0	34248	32101	
1295	0	34702	32654	
1296	0	33520	32704	
1297	0	32998	32583	
1298	0	33144	32427	
1299	0	33116	32931	
1300	0	32905	32959	
1301	0	32325	33054	
1302	0	31596	33090	
1303	0	31460	33445	
1304	0	32584	33674	
1305	0	32984	33676	
1306	0	34557	33330	
1307	0	36192	33442	
1308	0	36811	33686	
1309	0	35522	32572	
1310	0	33921	32159	
1311	0	32108	32085	
1312	0	30561	32042	
1313	0	29451	31924	
1314	0	28908	31562	
1315	0	28472	31561	
1316	0	29384	31873	
1317	0	30820	31220	
1318	0	32072	30919	
1319	0	32584	31932	
1320	0	32728	33426	
1321	0	32430	33976	
1322	0	31556	33874	
1323	0	30761	33438	
1324	0	30672	32793	
1325	0	31778	32994	
1326	0	34844	33306	
1327	0	37092	33816	
1328	0	36924	33810	
1329	0	35688	33400	
1330	0	34630	32600	
1331	0	33978	32045	
1332	0	33106	30247	
1333	0	32070	29188	
1334	0	30904	29784	
1335	0	29936	31848	
1336	0	30564	33988	
1337	0	32168	35234	
1338	0	33140	35432	
1339	0	35656	34942	
1340	0	36224	33551	
1341	0	34664	32598	
1342	0	33016	32492	
1343	0	31700	33287	
1344	0	30724	33377	
1345	0	30472	32816	
1346	0	30876	31873	
1347	0	31028	31859	
1348	0	31730	32744	
1349	0	32916	33181	
1350	0	34930	32873	
1351	0	35536	33188	
1352	0	34730	32970	
1353	0	33752	31902	
1354	0	32908	31110	
1355	0	32634	31444	
1356	0	32504	31751	
1357	0	32316	32335	
1358	0	31860	32931	
1359	0	31760	33430	
1360	0	32186	33277	
1361	0	32544	33287	
1362	0	32564	33266	
1363	0	33072	33200	
1364	0	33816	33116	
1365	0	35037	32603	
1366	0	35114	32629	
1367	0	34036	32908	
1368	0	32448	32954	
1369	0	31440	32545	
1370	0	30880	31970	
1371	0	30478	32374	
1372	0	30440	32966	
1373	0	30623	33080	
1374	0	31161	32850	
1375	0	31660	32982	
1376	0	32072	32808	
1377	0	33110	32866	
1378	0	34198	32500	
1379	0	34438	32576	
1380	0	34264	32741	
1381	0	33480	32888	
1382	0	33080	33140	
1383	0	33188	32867	
1384	0	32744	32420	
1385	0	32493	31955	
1386	0	32343	32233	
1387	0	31996	32638	
1388	0	31824	33121	
1389	0	32857	33470	
1390	0	35720	33170	
1391	0	36194	32489	
1392	0	35260	32643	
1393	0	34000	32904	
1394	0	32690	33194	
1395	0	31933	33508	
1396	0	31460	32772	
1397	0	30304	32370	
1398	0	29593	33023	
1399	0	28928	33253	
1400	0	29340	33036	
1401	0	31272	32493	
1402	0	33388	32098	
1403	0	35066	32583	
1404	0	35346	32775	
1405	0	34941	32576	
1406	0	33676	32302	
1407	0	32600	32148	
1408	0	31822	32338	
1409	0	31448	32679	
1410	0	31498	32613	
1411	0	32184	32628	
1412	0	32188	32386	
1413	0	32308	32527	
1414	0	32184	32570	
1415	0	31664	32350	
1416	0	32280	31634	
1417	0	33113	32084	
1418	0	33914	32668	
1419	0	34560	33530	
1420	0	34700	33435	
1421	0	34444	33455	
1422	0	34256	32997	
1423	0	34258	32653	
1424	0	34614	32689	
1425	0	34512	32315	
1426	0	33600	32560	
1427	0	32037	33000	
1428	0	31280	33154	
1429	0	31002	33063	
1430	0	30256	32188	
1431	0	29748	32383	
1432	0	30944	32652	
1433	0	33744	32957	
1434	0	34354	32999	
1435	0	34144	32670	
1436	0	34858	32535	
1437	0	35354	32558	
1438	0	33886	32792	
1439	0	32266	32813	
1440	0	31096	32775	
1441	0	30612	32662	
1442	0	30802	32359	
1443	0	30964	32172	
1444	0	31446	32253	
1445	0	32301	32471	
1446	0	32364	33225	
1447	0	32162	34167	
1448	0	32088	34233	
1449	0	32836	33132	
1450	0	33392	32417	
1451	0	33232	32387	
1452	0	33166	32440	
1453	0	33252	32773	
1454	0	33472	33242	
1455	0	33428	33373	
1456	0	33232	33130	
1457	0	32880	32831	
1458	0	32581	32545	
1459	0	32184	32191	
1460	0	32088	31640	
1461	0	32296	32205	
1462	0	32480	32828	
1463	0	33402	33029	
1464	0	34209	33036	
1465	0	35896	32826	
1466	0	36436	31560	
1467	0	36624	30843	
1468	0	35492	31376	
1469	0	33876	32334	
1470	0	31978	33228	
1471	0	29928	33640	
1472	0	27996	33500	
1473	0	26849	33790	
1474	0	27420	33947	
1475	0	29144	33371	
1476	0	31636	33326	
1477	0	33066	33192	
1478	0	33728	32698	
1479	0	34501	32792	
1480	0	35592	32992	
1481	0	35122	33076	
1482	0	34336	33255	
1483	0	33597	33480	
1484	0	32804	33189	
1485	0	31960	32150	
1486	0	31360	31267	
1487	0	31200	31687	
1488	0	31032	32422	
1489	0	32112	32251	
1490	0	33344	31888	
1491	0	34576	31585	
1492	0	34936	32026	
1493	0	34886	32296	
1494	0	34482	32408	
1495	0	34124	32676	
1496	0	33480	32940	
1497	0	33052	33030	
1498	0	32356	33129	
1499	0	32296	33090	
1500	0	32034	32715	
1501	0	32282	32814	
1502	0	32008	32847	
1503	0	31842	32784	
1504	0	31680	32356	
1505	0	31616	31805	
1506	0	31458	32653	
1507	0	31481	33863	
1508	0	32132	34803	
1509	0	33744	34927	
1510	0	34816	33991	
1511	0	34314	32763	
1512	0	33630	32746	
1513	0	33060	32841	
1514	0	32590	32551	
1515	0	32064	32095	
1516	0	32772	31772	
1517	0	33244	31566	
1518	0	32720	31298	
1519	0	32188	31388	
1520	0	31805	32345	
1521	0	31732	32827	
1522	0	31408	32913	
1523	0	31484	33087	
1524	0	33262	33213	
1525	0	33244	33399	
1526	0	32688	33231	
1527	0	33410	32837	
1528	0	33643	32712	
1529	0	33121	32703	
1530	0	32722	32594	
1531	0	32873	31887	
1532	0	32900	32111	
1533	0	32500	32374	
1534	0	32224	32679	
1535	0	32212	32851	
1536	0	32506	32734	
1537	0	32668	32807	
1538	0	32304	33095	
1539	0	31802	32983	
1540	0	32270	33141	
1541	0	33186	32722	
1542	0	33796	32675	
1543	0	34112	32496	
1544	0	35000	32751	
1545	0	35074	32894	
1546	0	34190	32918	
1547	0	33336	32420	
1548	0	32350	32340	
1549	0	31464	32583	
1550	0	30841	32809	
1551	0	31060	32895	
1552	0	31754	32982	
1553	0	31936	33176	
1554	0	31961	33415	
1555	0	31884	32908	
1556	0	32589	32676	
1557	0	33000	32740	
1558	0	33057	33223	
1559	0	33376	32936	
1560	0	33320	31875	
1561	0	32760	32020	
1562	0	32263	32944	
1563	0	32108	33327	
1564	0	32436	33042	
1565	0	32808	32975	
1566	0	33474	32804	
1567	0	33682	32559	
1568	0	33792	32402	
1569	0	34018	32386	
1570	0	33668	32320	
1571	0	33028	32575	
1572	0	32808	32752	
1573	0	32792	31686	
1574	0	32929	30523	
1575	0	33098	30980	
1576	0	32840	31978	
1577	0	32058	33082	
1578	0	31612	34202	
1579	0	31781	33963	
1580	0	31870	33498	
1581	0	32032	33762	
1582	0	31964	34337	
1583	0	32226	34360	
1584	0	32792	33995	
1585	0	33412	33287	
1586	0	33372	33381	
1587	0	33228	32644	
1588	0	32968	31543	
1589	0	33034	31333	
1590	0	32856	32171	
1591	0	33272	33014	
1592	0	34267	33451	
1593	0	34273	33306	
1594	0	33184	33231	
1595	0	32296	32984	
1596	0	31336	32304	
1597	0	30664	32317	
1598	0	30774	33070	
1599	0	31028	32420	
1600	0	31522	31627	
1601	0	32644	31432	
1602	0	35528	31506	
1603	0	37188	32041	
1604	0	37032	32324	
1605	0	36018	32329	
1606	0	34853	32660	
1607	0	33144	32806	
1608	0	30596	33034	
1609	0	28156	32372	
1610	0	26784	32527	
1611	0	27285	33079	
1612	0	28844	33727	
1613	0	30497	33705	
1614	0	31578	33685	
1615	0	32334	32607	
1616	0	32904	32201	
1617	0	32984	32931	
1618	0	34128	33074	
1619	0	35394	32907	
1620	0	35656	33124	
1621	0	35234	32643	
1622	0	34624	32137	
1623	0	33938	32125	
1624	0	33425	32326	
1625	0	32780	32363	
1626	0	32452	32578	
1627	0	32264	33156	
1628	0	32180	33559	
1629	0	32728	33437	
1630	0	33804	32606	
1631	0	35498	31612	
1632	0	35192	31707	
1633	0	33892	32623	
1634	0	33092	33221	
1635	0	32176	33298	
1636	0	31500	32501	
1637	0	31146	32670	
1638	0	31048	32985	
1639	0	30610	33423	
1640	0	30472	33351	
1641	0	30726	32913	
1642	0	31656	32866	
1643	0	33008	32984	
1644	0	33540	33128	
1645	0	33884	32593	
1646	0	34288	32738	
1647	0	34478	32735	
1648	0	34823	32811	
1649	0	34460	32857	
1650	0	33522	32812	
1651	0	32772	32630	
1652	0	31744	32620	
1653	0	30676	32489	
1654	0	30372	32382	
1655	0	31168	32530	
1656	0	31944	32839	
1657	0	32148	32888	
1658	0	32272	32539	
1659	0	32366	31863	
1660	0	32752	31830	
1661	0	33536	32949	
1662	0	34092	33330	
1663	0	33952	32962	
1664	0	33834	32991	
1665	0	33503	32575	
1666	0	33628	32364	
1667	0	34652	32378	
1668	0	34187	32166	
1669	0	33986	32317	
1670	0	33920	33019	
1671	0	32909	32397	
1672	0	31960	31343	
1673	0	31584	30867	
1674	0	31488	31256	
1675	0	31284	32611	
1676	0	31013	34448	
1677	0	31008	35936	
1678	0	31976	35058	
1679	0	32744	32922	
1680	0	32224	33056	
1681	0	31932	33054	
1682	0	31804	32034	
1683	0	32580	31937	
1684	0	32808	32618	
1685	0	32964	33214	
1686	0	32948	33893	
1687	0	32952	33901	
1688	0	32764	33271	
1689	0	32872	32862	
1690	0	33932	32283	
1691	0	34021	31630	
1692	0	33650	32018	
1693	0	32946	32204	
1694	0	32326	32374	
1695	0	32123	31977	
1696	0	32070	32075	
1697	0	32022	32319	
1698	0	32192	32867	
1699	0	32204	33664	
1700	0	32296	33883	
1701	0	33024	33127	
1702	0	34249	32879	
1703	0	35016	33112	
1704	0	34704	32850	
1705	0	34320	32686	
1706	0	33774	32575	
1707	0	33072	32372	
1708	0	32216	32176	
1709	0	31444	32040	
1710	0	31044	31610	
1711	0	30562	31674	
1712	0	30624	31897	
1713	0	31611	32923	
1714	0	33332	33909	
1715	0	33826	34704	
1716	0	34084	34389	
1717	0	34180	33264	
1718	0	33880	32029	
1719	0	33600	31442	
1720	0	33284	31766	
1721	0	32420	32613	
1722	0	31847	33053	
1723	0	31584	32746	
1724	0	31264	32676	
1725	0	30842	32708	
1726	0	30825	32984	
1727	0	31296	32951	
1728	0	31784	33245	
1729	0	32192	33116	
1730	0	32896	32635	
1731	0	33640	32028	
1732	0	34248	32239	
1733	0	34236	32471	
1734	0	33993	32774	
1735	0	33578	32848	
1736	0	33208	32719	
1737	0	32980	32683	
1738	0	32804	33063	
1739	0	32790	33487	
1740	0	32790	33469	
1741	0	32646	32707	
1742	0	32305	32548	
1743	0	32336	32853	
1744	0	32688	32641	
1745	0	33612	32768	
1746	0	35069	32535	
1747	0	35493	32669	
1748	0	35214	32856	
1749	0	35592	32702	
1750	0	35616	32605	
1751	0	33904	32880	
1752	0	31814	33792	
1753	0	29792	33816	
1754	0	28373	32768	
1755	0	28164	32541	
1756	0	28688	32290	
1757	0	29300	33063	
1758	0	30556	33002	
1759	0	31938	32586	
1760	0	33060	32891	
1761	0	33260	32635	
1762	0	33580	30315	
1763	0	33976	30311	
1764	0	34000	30958	
1765	0	33892	32162	
1766	0	33538	33280	
1767	0	33040	33411	
1768	0	32823	33653	
1769	0	32578	33970	
1770	0	32640	33573	
1771	0	33110	33031	
1772	0	33238	33142	
1773	0	32994	33727	
1774	0	32972	33485	
1775	0	33332	32763	
1776	0	34491	32364	
1777	0	35740	32288	
1778	0	35171	32282	
1779	0	33890	31922	
1780	0	32652	32254	
1781	0	31600	32045	
1782	0	30921	31580	
1783	0	31611	32908	
1784	0	33910	33576	
1785	0	34716	33382	
1786	0	33504	33607	
1787	0	31804	33573	
1788	0	30297	32656	
1789	0	29728	31677	
1790	0	29947	31332	
1791	0	30402	32125	
1792	0	30899	33095	
1793	0	31716	32955	
1794	0	32644	32995	
1795	0	32906	33526	
1796	0	32953	33744	
1797	0	32878	32714	
1798	0	33280	32482	
1799	0	33956	33080	
1800	0	35458	32612	
1801	0	35000	32442	
1802	0	34090	33164	
1803	0	33332	33581	
1804	0	32720	33846	
1805	0	32386	34075	
1806	0	32058	32949	
1807	0	31976	30847	
1808	0	32018	29993	
1809	0	32178	30965	
1810	0	32032	31893	
1811	0	31936	32158	
1812	0	32036	32739	
1813	0	32201	32903	
1814	0	32428	33714	
1815	0	33024	33954	
1816	0	33488	33833	
1817	0	33688	34029	
1818	0	34106	33881	
1819	0	35536	32484	
1820	0	35309	32083	
1821	0	33945	32523	
1822	0	32588	32962	
1823	0	31708	33925	
1824	0	31260	34074	
1825	0	30816	33436	
1826	0	30816	32349	
1827	0	31542	31174	
1828	0	32185	30676	
1829	0	32252	30987	
1830	0	32152	31367	
1831	0	33076	32550	
1832	0	33799	32989	
1833	0	33594	33269	
1834	0	33090	33073	
1835	0	32420	33524	
1836	0	32084	33535	
1837	0	32224	33026	
1838	0	32388	32956	
1839	0	32456	33194	
1840	0	32624	32244	
1841	0	33300	31488	
1842	0	34404	31538	
1843	0	34398	32547	
1844	0	34276	33779	
1845	0	33812	33524	
1846	0	33199	32620	
1847	0	32780	32967	
1848	0	32434	33257	
1849	0	32074	33475	
1850	0	31844	33612	
1851	0	31881	33546	
1852	0	31610	33275	
1853	0	32780	32924	
1854	0	33836	32386	
1855	0	33852	31848	
1856	0	33852	30109	
1857	0	33244	29522	
1858	0	32610	30461	
1859	0	32165	32320	
1860	0	31638	33919	
1861	0	31128	34390	
1862	0	30968	34525	
1863	0	31458	34415	
1864	0	32350	33150	
1865	0	32852	32974	
1866	0	32745	32893	
1867	0	33036	32942	
1868	0	33330	33583	
1869	0	32972	33344	
1870	0	32428	32615	
1871	0	32294	32747	
1872	0	34070	32626	
1873	0	34865	32014	
1874	0	33792	32636	
1875	0	32560	32910	
1876	0	31732	31592	
1877	0	31256	31642	
1878	0	31215	32628	
1879	0	31560	33113	
1880	0	32118	33418	
1881	0	32362	33008	
1882	0	32766	32644	
1883	0	32882	32696	
1884	0	32672	32028	
1885	0	32694	32453	
1886	0	32924	33845	
1887	0	32928	33730	
1888	0	33066	33651	
1889	0	33404	32628	
1890	0	33548	30388	
1891	0	33670	28797	
1892	0	34072	29637	
1893	0	33992	32270	
1894	0	33384	34785	
1895	0	32876	35779	
1896	0	32309	34623	
1897	0	32032	34099	
1898	0	32500	34847	
1899	0	33148	34736	
1900	0	33596	32740	
1901	0	34434	30650	
1902	0	34151	30332	
1903	0	33148	30899	
1904	0	32234	32128	
1905	0	31444	32711	
1906	0	30794	32982	
1907	0	30480	32971	
1908	0	30768	32766	
1909	0	31402	32391	
1910	0	32044	32820	
1911	0	32742	32463	
1912	0	32920	32263	
1913	0	33145	31890	
1914	0	33379	31461	
1915	0	33498	32092	
1916	0	33792	33314	
1917	0	33896	34848	
1918	0	33568	36479	
1919	0	33090	35538	
1920	0	33416	33583	
1921	0	36184	32733	
1922	0	35530	32018	
1923	0	33360	32000	
1924	0	31698	31732	
1925	0	30848	32191	
1926	0	31682	32543	
1927	0	32000	32556	
1928	0	31622	31869	
1929	0	31082	31388	
1930	0	30781	31920	
1931	0	30792	33476	
1932	0	30748	33598	
1933	0	30792	32893	
1934	0	31260	32611	
1935	0	32064	32922	
1936	0	32754	32681	
1937	0	33186	31813	
1938	0	33616	32250	
1939	0	34096	32063	
1940	0	34122	32228	
1941	0	34131	33044	
1942	0	35138	33513	
1943	0	34946	32868	
1944	0	34052	31425	
1945	0	33208	31864	
1946	0	32580	32489	
1947	0	32736	32126	
1948	0	32728	32034	
1949	0	32440	33664	
1950	0	32152	34786	
1951	0	31736	34042	
1952	0	31208	33415	
1953	0	31053	32914	
1954	0	31466	32973	
1955	0	32180	32671	
1956	0	33164	32424	
1957	0	33892	32243	
1958	0	33902	30959	
1959	0	33534	30201	
1960	0	33336	31550	
1961	0	33584	32805	
1962	0	33362	34285	
1963	0	32880	34525	
1964	0	32436	34338	
1965	0	32164	34871	
1966	0	32151	34533	
1967	0	32043	33410	
1968	0	32076	32390	
1969	0	32463	31823	
1970	0	32813	30664	
1971	0	34256	30639	
1972	0	34180	31621	
1973	0	33194	33172	
1974	0	32402	34690	
1975	0	32076	34597	
1976	0	32901	32448	
1977	0	32901	31302	
1978	0	32576	32189	
1979	0	32197	32595	
1980	0	31890	32671	
1981	0	31877	33426	
1982	0	31788	33945	
1983	0	31956	34023	
1984	0	32386	33765	
1985	0	32784	33200	
1986	0	33276	32398	
1987	0	33674	31677	
1988	0	33600	32099	
1989	0	33309	32296	
1990	0	32794	31529	
1991	0	32615	31261	
1992	0	32263	31625	
1993	0	32128	32236	
1994	0	32132	32247	
1995	0	32800	31966	
1996	0	34310	31860	
1997	0	34638	33006	
1998	0	34098	33191	
1999	0	33138	33552	
2000	0	32128	33795	
2001	0	31606	33287	
2002	0	31132	33492	
2003	0	31096	34216	
2004	0	31597	34048	
2005	0	33372	32928	
2006	0	34022	32110	
2007	0	33744	31687	
2008	0	33456	32215	
2009	0	33269	33010	
2010	0	32772	33691	
2011	0	32272	33774	
2012	0	32128	32897	
2013	0	32924	31602	
2014	0	33426	31030	
2015	0	32833	31506	
2016	0	32368	32383	
2017	0	32028	32211	
2018	0	31704	31529	
2019	0	31651	31490	
2020	0	31758	31040	
2021	0	32329	32009	
2022	0	32576	33154	
2023	0	32608	34818	
2024	0	32880	35503	
2025	0	33008	34897	
2026	0	32957	34311	
2027	0	33200	32850	
2028	0	33210	32320	
2029	0	33212	32087	
2030	0	33281	32337	
2031	0	33932	32573	
2032	0	34188	32430	
2033	0	33528	32495	
2034	0	33449	32879	
2035	0	34072	33107	
2036	0	33506	32617	
2037	0	32401	32294	
2038	0	31380	32448	
2039	0	31756	32326	
2040	0	32802	32614	
2041	0	32034	33469	
2042	0	31560	32932	
2043	0	31364	32128	
2044	0	31384	31515	
2045	0	31652	32087	
2046	0	32080	32892	
2047	0	32456	33465	
2048	0	32646	33632	
2049	0	32414	33670	
2050	0	32442	33039	
2051	0	32672	33457	
2052	0	33728	34119	
2053	0	34738	33679	
2054	0	35962	32650	
2055	0	36648	32357	
2056	0	35896	32393	
2057	0	33820	32557	
2058	0	31873	31995	
2059	0	30384	32170	
2060	0	29613	32226	
2061	0	29484	32880	
2062	0	29388	32245	
2063	0	29788	30670	
2064	0	30826	30777	
2065	0	32096	31986	
2066	0	33468	33498	
2067	0	33980	34439	
2068	0	33611	33580	
2069	0	33384	33468	
2070	0	33810	33922	
2071	0	33424	33015	
2072	0	33172	32086	
2073	0	32996	31665	
2074	0	33008	32091	
2075	0	32944	32058	
2076	0	32857	32032	
2077	0	32690	32295	
2078	0	32488	33007	
2079	0	32452	32421	
2080	0	32530	32368	
2081	0	32676	32569	
2082	0	32632	32936	
2083	0	32608	33367	
2084	0	32775	33411	
2085	0	32964	33421	
2086	0	33167	32807	
2087	0	33256	31988	
2088	0	33384	32262	
2089	0	33780	33287	
2090	0	33752	33282	
2091	0	33600	32623	
2092	0	33212	32391	
2093	0	32952	31971	
2094	0	32676	32403	
2095	0	32524	33286	
2096	0	33140	33170	
2097	0	34564	33496	
2098	0	34643	33021	
2099	0	34120	32751	
2100	0	33705	32718	
2101	0	32596	32820	
2102	0	31440	32944	
2103	0	30976	32644	
2104	0	30438	32125	
2105	0	30368	31203	
2106	0	30736	30973	
2107	0	31207	32058	
2108	0	32380	33167	
2109	0	34722	33331	
2110	0	35576	33634	
2111	0	34564	33614	
2112	0	33232	32941	
2113	0	32164	32229	
2114	0	31357	32379	
2115	0	30793	33037	
2116	0	30602	33229	
2117	0	30696	33322	
2118	0	30912	33459	
2119	0	31458	32857	
2120	0	32184	32522	
2121	0	32932	32459	
2122	0	33579	32146	
2123	0	33798	32245	
2124	0	34262	32346	
2125	0	35700	32626	
2126	0	36608	32775	
2127	0	36450	32536	
2128	0	36858	32346	
2129	0	34852	32594	
2130	0	32285	32296	
2131	0	30984	33330	
2132	0	29456	33408	
2133	0	28288	32840	
2134	0	28258	32962	
2135	0	28330	33287	
2136	0	29492	32954	
2137	0	30897	32892	
2138	0	31962	32436	
2139	0	32650	32276	
2140	0	33320	31543	
2141	0	33752	31540	
2142	0	34036	31869	
2143	0	34221	32837	
2144	0	34760	33726	
2145	0	35120	33170	
2146	0	35160	32807	
2147	0	34756	33035	
2148	0	33984	33238	
2149	0	33384	33695	
2150	0	32892	33715	
2151	0	32598	32850	
2152	0	32400	32999	
2153	0	32440	33208	
2154	0	32473	32651	
2155	0	32500	32692	
2156	0	33704	32732	
2157	0	33812	33108	
2158	0	32938	32701	
2159	0	31902	32444	
2160	0	31124	32459	
2161	0	31130	32610	
2162	0	32729	31910	
2163	0	33900	31894	
2164	0	34369	32207	
2165	0	34410	31960	
2166	0	33132	32077	
2167	0	31804	32181	
2168	0	30908	32263	
2169	0	30440	32712	
2170	0	30401	33790	
2171	0	30739	34912	
2172	0	31412	34268	
2173	0	32078	32939	
2174	0	32408	32272	
2175	0	32298	31986	
2176	0	32576	31987	
2177	0	34720	32260	
2178	0	36496	33086	
2179	0	36552	32690	
2180	0	35144	31197	
2181	0	33428	30005	
2182	0	32316	30391	
2183	0	31304	32720	
2184	0	30648	35310	
2185	0	30618	35828	
2186	0	30908	35748	
2187	0	31312	35020	
2188	0	31760	33384	
2189	0	32561	33102	
2190	0	33986	31919	
2191	0	35262	31922	
2192	0	35874	33026	
2193	0	35474	33181	
2194	0	36192	32588	
2195	0	34792	32560	
2196	0	32662	32664	
2197	0	30986	32308	
2198	0	29786	31871	
2199	0	29230	31648	
2200	0	29368	32102	
2201	0	30056	32518	
2202	0	30994	32260	
2203	0	31620	32468	
2204	0	31997	32199	
2205	0	32998	32386	
2206	0	34862	32664	
2207	0	34689	33046	
2208	0	33949	33608	
2209	0	33058	33687	
2210	0	32434	33094	
2211	0	32072	32646	
2212	0	32056	32549	
2213	0	32116	32406	
2214	0	32425	32234	
2215	0	32800	32588	
2216	0	32936	32826	
2217	0	33206	32800	
2218	0	33330	32835	
2219	0	33316	32940	
2220	0	33157	33266	
2221	0	32906	33462	
2222	0	32973	33249	
2223	0	33210	32728	
2224	0	33824	32180	
2225	0	34272	32349	
2226	0	34234	32147	
2227	0	33852	32118	
2228	0	33599	32834	
2229	0	33492	33265	
2230	0	33480	33547	
2231	0	33596	32623	
2232	0	33424	32011	
2233	0	33341	32598	
2234	0	32752	33166	
2235	0	31902	33251	
2236	0	31184	32285	
2237	0	30760	31940	
2238	0	30572	32588	
2239	0	30600	32662	
2240	0	30746	32999	
2241	0	30792	33638	
2242	0	31346	31978	
2243	0	32236	31280	
2244	0	32632	31762	
2245	0	32768	32382	
2246	0	32888	31106	
2247	0	33153	32148	
2248	0	33420	35122	
2249	0	35176	35736	
2250	0	37348	36036	
2251	0	37218	34092	
2252	0	35376	31714	
2253	0	33411	31271	
2254	0	33241	32905	
2255	0	32906	34368	
2256	0	31624	34706	
2257	0	30948	32740	
2258	0	30896	31094	
2259	0	30216	31009	
2260	0	29412	31445	
2261	0	28950	31820	
2262	0	30460	32527	
2263	0	33444	33287	
2264	0	33740	33298	
2265	0	33020	32258	
2266	0	32634	31986	
2267	0	32262	32998	
2268	0	31640	32123	
2269	0	31356	31324	
2270	0	31453	30943	
2271	0	31724	31535	
2272	0	32292	32328	
2273	0	32800	32123	
2274	0	33074	32801	
2275	0	33134	33429	
2276	0	33433	33553	
2277	0	33576	33277	
2278	0	33660	33016	
2279	0	33746	32895	
2280	0	33787	33624	
2281	0	33904	33442	
2282	0	34182	32760	
2283	0	34064	32210	
2284	0	33936	31285	
2285	0	33786	30973	
2286	0	33592	30976	
2287	0	33488	32996	
2288	0	33344	34532	
2289	0	33156	34086	
2290	0	32942	31839	
2291	0	32548	29902	
2292	0	32108	30243	
2293	0	32016	31919	
2294	0	32386	33715	
2295	0	32614	33799	
2296	0	32554	34195	
2297	0	32418	34525	
2298	0	32492	33843	
2299	0	32461	33758	
2300	0	32220	34098	
2301	0	31998	33895	
2302	0	32106	33856	
2303	0	32752	33194	
2304	0	33416	33650	
2305	0	33466	32835	
2306	0	33208	31430	
2307	0	32960	30224	
2308	0	32620	30786	
2309	0	32376	31185	
2310	0	32961	32046	
2311	0	33320	34222	
2312	0	33261	36494	
2313	0	32683	37082	
2314	0	32676	35462	
2315	0	32916	32514	
2316	0	32644	30752	
2317	0	32221	30823	
2318	0	34290	31178	
2319	0	35576	31554	
2320	0	34984	31437	
2321	0	34380	32527	
2322	0	33232	32790	
2323	0	32650	32275	
2324	0	31896	32315	
2325	0	30885	30974	
2326	0	29892	28992	
2327	0	29342	30124	
2328	0	28994	32406	
2329	0	29360	34397	
2330	0	29888	34671	
2331	0	30440	33771	
2332	0	30904	33960	
2333	0	31128	35092	
2334	0	31477	34216	
2335	0	31835	33415	
2336	0	32800	33106	
2337	0	33844	33195	
2338	0	35322	33230	
2339	0	36216	32646	
2340	0	35984	32130	
2341	0	35208	32091	
2342	0	34380	32071	
2343	0	34692	32229	
2344	0	34272	32223	
2345	0	33528	32209	
2346	0	32792	32242	
2347	0	32280	33110	
2348	0	31842	35000	
2349	0	31540	34626	
2350	0	31800	32415	
2351	0	32104	31844	
2352	0	32464	32431	
2353	0	32644	32680	
2354	0	32856	32639	
2355	0	33089	32146	
2356	0	32972	32135	
2357	0	32516	32484	
2358	0	32372	32796	
2359	0	32356	33174	
2360	0	32512	32507	
2361	0	32780	32040	
2362	0	32944	32366	
2363	0	33156	32342	
2364	0	33360	32079	
2365	0	33494	32710	
2366	0	33572	33923	
2367	0	35176	33962	
2368	0	35584	33034	
2369	0	35026	32342	
2370	0	34170	32550	
2371	0	32817	32902	
2372	0	31744	32494	
2373	0	31124	32666	
2374	0	30628	33054	
2375	0	30032	33210	
2376	0	29742	32866	
2377	0	29628	32818	
2378	0	29836	33039	
2379	0	30400	32786	
2380	0	31480	32250	
2381	0	32736	31575	
2382	0	33618	31724	
2383	0	34662	32251	
2384	0	34980	32578	
2385	0	35403	32712	
2386	0	35352	32775	
2387	0	34586	32703	
2388	0	33764	33021	
2389	0	32852	33104	
2390	0	32114	32747	
2391	0	31424	32871	
2392	0	30939	33115	
2393	0	30942	33505	
2394	0	31382	33172	
2395	0	32354	32406	
2396	0	33188	31939	
2397	0	33648	32436	
2398	0	33592	33484	
2399	0	33538	33383	
2400	0	33376	32945	
2401	0	33410	32364	
2402	0	33422	32229	
2403	0	33192	32384	
2404	0	32716	33010	
2405	0	32308	33479	
2406	0	31824	33220	
2407	0	31748	33061	
2408	0	31812	32873	
2409	0	32130	33051	
2410	0	32612	32306	
2411	0	32996	31064	
2412	0	33260	31739	
2413	0	33732	32188	
2414	0	33817	32564	
2415	0	33614	33039	
2416	0	33088	32999	
2417	0	32552	33008	
2418	0	32164	32002	
2419	0	31946	31400	
2420	0	32184	31695	
2421	0	32464	32611	
2422	0	32541	33108	
2423	0	32436	33372	
2424	0	32508	33657	
2425	0	32801	33428	
2426	0	32912	33881	
2427	0	32982	32815	
2428	0	32872	32087	
2429	0	32460	32496	
2430	0	32514	32857	
2431	0	32746	33126	
2432	0	33036	33113	
2433	0	32948	33469	
2434	0	32966	34165	
2435	0	32858	33543	
2436	0	32700	33204	
2437	0	32724	32710	
2438	0	32872	32706	
2439	0	33368	32600	
2440	0	33894	32452	
2441	0	34210	32017	
2442	0	33944	31854	
2443	0	33276	32292	
2444	0	32668	32479	
2445	0	32024	31897	
2446	0	31648	32127	
2447	0	31312	32671	
2448	0	31176	32884	
2449	0	31096	32764	
2450	0	31527	32568	
2451	0	32172	32929	
2452	0	32626	32490	
2453	0	32956	32623	
2454	0	33168	32846	
2455	0	33170	33451	
2456	0	33204	33639	
2457	0	33748	33480	
2458	0	33646	33175	
2459	0	33500	33063	
2460	0	33294	32587	
2461	0	33168	32535	
2462	0	32972	32567	
2463	0	32717	31956	
2464	0	32440	31452	
2465	0	32328	31807	
2466	0	32652	32262	
2467	0	33052	32722	
2468	0	34068	33194	
2469	0	34962	33321	
2470	0	34910	32975	
2471	0	34386	32475	
2472	0	33588	32383	
2473	0	32701	32432	
2474	0	31672	32746	
2475	0	30792	33194	
2476	0	30189	33666	
2477	0	30092	33287	
2478	0	30822	33498	
2479	0	31106	33152	
2480	0	31192	32843	
2481	0	31212	32817	
2482	0	31604	32177	
2483	0	32368	32079	
2484	0	33130	32072	
2485	0	33492	31632	
2486	0	33762	32114	
2487	0	33722	32033	
2488	0	33799	32324	
2489	0	33648	32804	
2490	0	33318	33074	
2491	0	32976	32896	
2492	0	32901	33104	
2493	0	33088	33415	
2494	0	33276	33345	
2495	0	33219	32889	
2496	0	32904	32820	
2497	0	32652	32847	
2498	0	32510	32989	
2499	0	32428	33029	
2500	0	32446	32630	
2501	0	32413	32759	
2502	0	32592	32896	
2503	0	32480	32263	
2504	0	32500	32114	
2505	0	32705	32470	
2506	0	33020	32617	
2507	0	32920	32548	
2508	0	32528	32061	
2509	0	32480	31869	
2510	0	33154	31538	
2511	0	34720	31352	
2512	0	36112	31879	
2513	0	35253	32792	
2514	0	33893	33543	
2515	0	32658	34260	
2516	0	32092	34755	
2517	0	31560	35515	
2518	0	30964	34176	
2519	0	30582	32758	
2520	0	31010	32554	
2521	0	31628	32227	
2522	0	31724	31945	
2523	0	31894	31974	
2524	0	32192	32135	
2525	0	32461	32435	
2526	0	32708	32591	
2527	0	32931	33281	
2528	0	33138	33479	
2529	0	33148	33489	
2530	0	33216	33227	
2531	0	32880	32613	
2532	0	32220	32139	
2533	0	31710	31833	
2534	0	31460	31704	
2535	0	31923	31657	
2536	0	32674	32407	
2537	0	33305	33099	
2538	0	33604	33283	
2539	0	33680	33131	
2540	0	33598	33095	
2541	0	33431	32340	
2542	0	33310	32214	
2543	0	33306	31855	
2544	0	33224	31500	
2545	0	33160	32052	
2546	0	33340	32517	
2547	0	33856	32939	
2548	0	33912	33486	
2549	0	34376	33584	
2550	0	34930	33165	
2551	0	34480	32804	
2552	0	33516	32755	
2553	0	32340	32706	
2554	0	31474	32714	
2555	0	30850	33005	
2556	0	30432	33733	
2557	0	30169	34016	
2558	0	30373	34049	
2559	0	30568	33135	
2560	0	30916	32903	
2561	0	31570	33095	
2562	0	32388	32518	
2563	0	32996	32010	
2564	0	33418	31652	
2565	0	33636	31974	
2566	0	33618	32324	
2567	0	34052	32134	
2568	0	34640	31819	
2569	0	34800	32337	
2570	0	34560	32924	
2571	0	34408	33218	
2572	0	33904	33270	
2573	0	33402	33109	
2574	0	32936	32870	
2575	0	32428	32855	
2576	0	32134	32751	
2577	0	32210	32696	
2578	0	32936	32954	
2579	0	33066	32775	
2580	0	32608	32871	
2581	0	32522	33068	
2582	0	32060	33162	
2583	0	31724	33063	
2584	0	31452	33408	
2585	0	31146	33156	
2586	0	30200	32592	
2587	0	29229	32178	
2588	0	29530	31980	
2589	0	30314	32080	
2590	0	31188	32566	
2591	0	31910	32647	
2592	0	33041	33306	
2593	0	34125	33415	
2594	0	34540	32830	
2595	0	34400	32629	
2596	0	34164	32404	
2597	0	33821	32673	
2598	0	33753	32721	
2599	0	33824	32472	
2600	0	33980	32569	
2601	0	33936	32452	
2602	0	33769	32485	
2603	0	33560	32556	
2604	0	33490	32854	
2605	0	33346	32820	
2606	0	33038	32994	
2607	0	32984	32995	
2608	0	32852	32938	
2609	0	32848	32628	
2610	0	33092	32549	
2611	0	33268	32850	
2612	0	33016	32397	
2613	0	33005	32376	
2614	0	32821	33236	
2615	0	32342	32842	
2616	0	32104	32879	
2617	0	32148	33023	
2618	0	32212	32995	
2619	0	32440	33124	
2620	0	32428	33223	
2621	0	32292	32862	
2622	0	32012	32647	
2623	0	31684	32727	
2624	0	31472	32734	
2625	0	31770	32612	
2626	0	31862	32775	
2627	0	31965	33174	
2628	0	32540	33447	
2629	0	32988	33218	
2630	0	33272	32279	
2631	0	33312	32503	
2632	0	33584	32854	
2633	0	33892	33142	
2634	0	34324	33061	
2635	0	34244	33129	
2636	0	33920	33635	
2637	0	33524	33150	
2638	0	33048	32290	
2639	0	32485	32082	
2640	0	32026	32329	
2641	0	31668	32530	
2642	0	31588	32608	
2643	0	31632	32293	
2644	0	31675	32149	
2645	0	32560	31731	
2646	0	33824	31791	
2647	0	34286	31694	
2648	0	34388	31838	
2649	0	33994	32182	
2650	0	34112	32737	
2651	0	34368	33406	
2652	0	33648	33911	
2653	0	32370	34125	
2654	0	30791	33702	
2655	0	29644	32775	
2656	0	29780	32617	
2657	0	30192	32822	
2658	0	30900	32730	
2659	0	32728	31921	
2660	0	33912	31650	
2661	0	33970	31278	
2662	0	33868	31568	
2663	0	33304	31627	
2664	0	32601	31698	
2665	0	32232	31431	
2666	0	32121	32103	
2667	0	31734	32646	
2668	0	31197	32937	
2669	0	31769	33074	
2670	0	32754	33186	
2671	0	33180	33496	
2672	0	33448	33478	
2673	0	33410	33132	
2674	0	33257	32439	
2675	0	33248	31881	
2676	0	33630	32281	
2677	0	34034	32997	
2678	0	34128	33569	
2679	0	34112	33376	
2680	0	33860	32792	
2681	0	33644	32750	
2682	0	33056	32884	
2683	0	32026	32821	
2684	0	31096	32756	
2685	0	30353	32696	
2686	0	29856	32626	
2687	0	30060	31576	
2688	0	30932	31666	
2689	0	31856	32402	
2690	0	32862	33106	
2691	0	33444	33731	
2692	0	33432	34254	
2693	0	33264	34366	
2694	0	33181	34033	
2695	0	33154	34050	
2696	0	33138	33834	
2697	0	33097	33338	
2698	0	33177	32855	
2699	0	33444	32944	
2700	0	33512	32711	
2701	0	33396	32706	
2702	0	33225	32726	
2703	0	33092	32183	
2704	0	32878	32007	
2705	0	32744	32108	
2706	0	32672	32281	
2707	0	32900	32652	
2708	0	33125	32752	
2709	0	33166	32494	
2710	0	33266	32496	
2711	0	33283	32653	
2712	0	33258	32882	
2713	0	33060	32584	
2714	0	32816	32961	
2715	0	32545	33250	
2716	0	32600	33287	
2717	0	33066	33126	
2718	0	33368	32944	
2719	0	33792	32966	
2720	0	33827	32662	
2721	0	33449	32576	
2722	0	33078	32413	
2723	0	32825	32224	
2724	0	32460	32208	
2725	0	32054	32215	
2726	0	31704	32369	
2727	0	31649	32418	
2728	0	31604	32261	
2729	0	31456	32205	
2730	0	32004	32333	
2731	0	32434	32727	
2732	0	32412	33223	
2733	0	32580	33274	
2734	0	32946	33111	
2735	0	32972	33095	
2736	0	32761	33065	
2737	0	32156	33151	
2738	0	31858	33159	
2739	0	31892	32546	
2740	0	31974	32598	
2741	0	32026	32775	
2742	0	32380	32495	
2743	0	32578	32762	
2744	0	32568	32559	
2745	0	32302	32349	
2746	0	32000	32591	
2747	0	32462	32517	
2748	0	32932	32394	
2749	0	33144	32571	
2750	0	33136	32391	
2751	0	33322	33010	
2752	0	33528	33397	
2753	0	33760	32919	
2754	0	33810	32811	
2755	0	33777	33373	
2756	0	33773	33362	
2757	0	33824	32920	
2758	0	33686	32711	
2759	0	33364	32504	
2760	0	33141	32116	
2761	0	32813	31901	
2762	0	32494	31988	
2763	0	32190	32337	
2764	0	31808	33063	
2765	0	31774	34243	
2766	0	32210	34079	
2767	0	32820	33489	
2768	0	33186	32736	
2769	0	33494	32191	
2770	0	33372	32456	
2771	0	33250	32445	
2772	0	33307	32472	
2773	0	33048	32549	
2774	0	32729	32288	
2775	0	32456	32538	
2776	0	31917	32734	
2777	0	31672	33007	
2778	0	31640	32864	
2779	0	31883	32771	
2780	0	31905	32671	
2781	0	31928	32647	
2782	0	32200	32775	
2783	0	32518	32683	
2784	0	32554	32612	
2785	0	32120	32333	
2786	0	31904	32191	
2787	0	32240	32505	
2788	0	32740	32774	
2789	0	33157	32846	
2790	0	33164	33287	
2791	0	33082	32999	
2792	0	33160	32775	
2793	0	33247	32542	
2794	0	33324	32563	
2795	0	33412	32757	
2796	0	33636	33117	
2797	0	33570	32755	
2798	0	33532	32657	
2799	0	33424	32933	
2800	0	33264	33007	
2801	0	33048	32667	
2802	0	32675	32367	
2803	0	32496	32535	
2804	0	32388	32223	
2805	0	32470	32379	
2806	0	32157	32608	
2807	0	31952	32387	
2808	0	32452	32677	
2809	0	33380	32840	
2810	0	34316	32774	
2811	0	35410	32843	
2812	0	35948	33023	
2813	0	35832	33287	
2814	0	34973	33231	
2815	0	33366	33026	
2816	0	31488	32786	
2817	0	29716	32803	
2818	0	28396	32863	
2819	0	27813	33007	
2820	0	27952	32719	
2821	0	28752	32542	
2822	0	29792	32402	
2823	0	31366	32256	
2824	0	33402	32376	
2825	0	34672	31942	
2826	0	35616	32173	
2827	0	35842	32447	
2828	0	35840	32506	
2829	0	35232	32853	
2830	0	34142	33050	
2831	0	33019	32982	
2832	0	32178	32799	
2833	0	31453	32840	
2834	0	30884	33024	
2835	0	31284	33254	
2836	0	32004	33088	
2837	0	33162	33094	
2838	0	33818	33024	
2839	0	34068	32890	
2840	0	34210	32887	
2841	0	34192	32696	
2842	0	34136	32484	
2843	0	33488	32326	
2844	0	32288	32150	
2845	0	31320	32082	
2846	0	30658	32114	
2847	0	30244	32031	
2848	0	30514	32263	
2849	0	30832	32607	
2850	0	31677	33159	
2851	0	32904	33572	
2852	0	34072	33263	
2853	0	34944	33066	
2854	0	34970	33046	
2855	0	34438	32877	
2856	0	33864	32731	
2857	0	33358	32735	
2858	0	32462	32946	
2859	0	31316	33078	
2860	0	30448	32832	
2861	0	30034	32563	
2862	0	30265	32573	
2863	0	31484	32564	
2864	0	33892	32284	
2865	0	35769	32108	
2866	0	36714	32151	
2867	0	37138	32363	
2868	0	36816	32351	
2869	0	35553	32593	
2870	0	33162	32532	
2871	0	30984	33108	
2872	0	30184	33181	
2873	0	29692	33049	
2874	0	29323	33321	
2875	0	29276	32977	
2876	0	28837	33050	
2877	0	29080	32999	
2878	0	29864	32926	
2879	0	31264	32704	
2880	0	32973	32812	
2881	0	34368	32569	
2882	0	35139	32691	
2883	0	35600	32608	
2884	0	35348	32263	
2885	0	34690	32163	
2886	0	33756	32451	
2887	0	33000	32640	
2888	0	32186	32554	
2889	0	32092	32565	
2890	0	32138	32763	
2891	0	31572	32975	
2892	0	32201	32944	
2893	0	33060	33144	
2894	0	34172	33053	
2895	0	35624	32998	
2896	0	36142	32968	
2897	0	35335	32967	
2898	0	34792	32879	
2899	0	33978	32402	
2900	0	33636	32096	
2901	0	32248	32340	
2902	0	30563	32391	
2903	0	29760	32138	
2904	0	29619	32171	
2905	0	29588	32582	
2906	0	29592	32671	
2907	0	29808	33122	
2908	0	29716	33158	
2909	0	30456	32911	
2910	0	31412	32819	
2911	0	33216	33196	
2912	0	35616	33198	
2913	0	37952	33058	
2914	0	38729	32809	
2915	0	37682	32774	
2916	0	36084	32997	
2917	0	34544	32990	
2918	0	32933	32663	
2919	0	31432	32644	
2920	0	30204	32816	
2921	0	29473	32889	
2922	0	29632	32592	
2923	0	29428	32832	
2924	0	28573	32740	
2925	0	29286	32828	
2926	0	30704	32378	
2927	0	31982	32517	
2928	0	33308	32707	
2929	0	33786	32404	
2930	0	34108	32315	
2931	0	34248	32547	
2932	0	34720	32762	
2933	0	35177	32683	
2934	0	35736	32935	
2935	0	35434	32982	
2936	0	35530	32754	
2937	0	37203	32960	
2938	0	37168	32948	
2939	0	36385	32775	
2940	0	34744	32554	
2941	0	33398	32155	
2942	0	32481	31791	
2943	0	31336	32249	
2944	0	29570	32592	
2945	0	28289	32809	
2946	0	27556	33100	
2947	0	28182	32914	
2948	0	29032	32870	
2949	0	29010	33172	
2950	0	27732	33151	
2951	0	28024	33059	
2952	0	29880	32922	
2953	0	30858	32484	
2954	0	31410	32612	
2955	0	32912	32975	
2956	0	34160	32921	
2957	0	34920	33337	
2958	0	34696	33124	
2959	0	34752	32607	
2960	0	35585	32488	
2961	0	36656	32460	
2962	0	37190	32561	
2963	0	37880	32668	
2964	0	38296	32510	
2965	0	37658	32472	
2966	0	36600	32491	
2967	0	35184	32548	
2968	0	33211	32080	
2969	0	31604	32671	
2970	0	30162	32600	
2971	0	28900	32503	
2972	0	27704	32708	
2973	0	27812	33080	
2974	0	28184	32996	
2975	0	29768	32972	
2976	0	32918	33105	
2977	0	34386	32946	
2978	0	34524	32533	
2979	0	33624	32179	
2980	0	32162	32541	
2981	0	31341	32454	
2982	0	31632	32879	
2983	0	32760	33175	
2984	0	32778	32914	
2985	0	32484	32440	
2986	0	33084	32499	
2987	0	33352	32708	
2988	0	33505	32512	
2989	0	33560	32351	
2990	0	34725	32566	
2991	0	35450	32764	
2992	0	35268	32775	
2993	0	35208	33333	
2994	0	35138	33505	
2995	0	34852	33389	
2996	0	34642	33347	
2997	0	34372	33531	
2998	0	32526	33258	
2999	0	30688	32728	
3000	0	28417	32805	
3001	0	26541	32391	
3002	0	26288	32287	
3003	0	26757	32046	
3004	0	27764	31899	
3005	0	29610	31951	
3006	0	31524	32041	
3007	0	33736	32263	
3008	0	34938	32686	
3009	0	35634	32821	
3010	0	36894	32750	
3011	0	37510	32788	
3012	0	37630	32894	
3013	0	37504	32786	
3014	0	37352	32899	
3015	0	36640	33158	
3016	0	35401	33234	
3017	0	33236	33216	
3018	0	30122	33268	
3019	0	27312	33359	
3020	0	26928	33231	
3021	0	26180	32976	
3022	0	25174	32620	
3023	0	25484	32201	
3024	0	28080	31971	
3025	0	31840	31700	
3026	0	34657	32242	
3027	0	35872	32685	
3028	0	36420	32827	
3029	0	36208	32758	
3030	0	36852	32972	
3031	0	38141	32891	
3032	0	37926	33186	
3033	0	37089	32837	
3034	0	35728	32449	
3035	0	33728	32624	
3036	0	31108	32618	
3037	0	28247	32806	
3038	0	27090	32584	
3039	0	27844	32871	
3040	0	29412	32775	
3041	0	31316	32857	
3042	0	32081	33073	
3043	0	33012	32768	
3044	0	34040	32121	
3045	0	35068	32146	
3046	0	36000	32406	
3047	0	36110	32422	
3048	0	36114	32400	
3049	0	35284	32646	
3050	0	33853	32710	
3051	0	32386	33104	
3052	0	31120	33287	
3053	0	30184	33000	
3054	0	29718	33023	
3055	0	31124	32738	
3056	0	32258	32985	
3057	0	34354	32642	
3058	0	35412	32390	
3059	0	35400	32349	
3060	0	34564	32448	
3061	0	33696	33026	
3062	0	32248	33429	
3063	0	31054	33080	
3064	0	30009	32859	
3065	0	30576	32167	
3066	0	31856	32300	
3067	0	34922	32212	
3068	0	36726	32540	
3069	0	37006	32462	
3070	0	37037	32552	
3071	0	36684	32886	
3072	0	34976	32829	
3073	0	32394	33056	
3074	0	29136	33090	
3075	0	28042	33458	
3076	0	27531	33188	
3077	0	26466	32719	
3078	0	26556	32574	
3079	0	27424	32462	
3080	0	29508	32948	
3081	0	31890	33199	
3082	0	32460	32760	
3083	0	33456	32829	
3084	0	34992	32612	
3085	0	36460	32350	
3086	0	37068	32580	
3087	0	36984	32486	
3088	0	35550	32615	
3089	0	33928	33020	
3090	0	33152	32891	
3091	0	32218	32921	
3092	0	29924	32708	
3093	0	29038	32786	
3094	0	29300	32955	
3095	0	30017	32515	
3096	0	31912	32297	
3097	0	35078	32550	
3098	0	36920	32547	
3099	0	36816	32648	
3100	0	35970	32903	
3101	0	35128	32931	
3102	0	33578	33016	
3103	0	32814	32846	
3104	0	32356	32377	
3105	0	31986	32465	
3106	0	32304	32704	
3107	0	33028	32815	
3108	0	32362	32656	
3109	0	30640	32628	
3110	0	29736	32803	
3111	0	30469	32630	
3112	0	30116	32548	
3113	0	29516	32765	
3114	0	31648	32685	
3115	0	34329	33020	
3116	0	36048	33216	
3117	0	37632	32969	
3118	0	37306	32890	
3119	0	35544	32711	
3120	0	34137	32293	
3121	0	33352	32459	
3122	0	32263	32494	
3123	0	31248	32626	
3124	0	31780	32733	
3125	0	31187	32972	
3126	0	30520	33078	
3127	0	30554	32978	
3128	0	31440	32775	
3129	0	32732	32882	
3130	0	32966	32775	
3131	0	32868	33166	
3132	0	32192	33004	
3133	0	31081	32876	
3134	0	30508	32477	
3135	0	29802	32324	
3136	0	29752	32524	
3137	0	29269	32391	
3138	0	31068	32730	
3139	0	33828	32498	
3140	0	34808	32669	
3141	0	35026	32774	
3142	0	34735	32262	
3143	0	34926	32102	
3144	0	35720	32792	
3145	0	35932	32820	
3146	0	35988	32879	
3147	0	35428	32825	
3148	0	35130	32753	
3149	0	34600	32870	
3150	0	33424	32896	
3151	0	31856	32491	
3152	0	30960	32159	
3153	0	31576	32624	
3154	0	32898	32655	
3155	0	32720	32975	
3156	0	32728	32913	
3157	0	32800	33042	
3158	0	32069	33408	
3159	0	30588	33158	
3160	0	29876	32656	
3161	0	29596	33028	
3162	0	31904	32809	
3163	0	33256	32535	
3164	0	32584	32309	
3165	0	31094	32263	
3166	0	32096	32430	
3167	0	32390	32394	
3168	0	32813	32745	
3169	0	32763	32551	
3170	0	32352	32767	
3171	0	32108	33036	
3172	0	33012	32879	
3173	0	33392	32864	
3174	0	33768	33381	
3175	0	34785	33245	
3176	0	35042	33058	
3177	0	34088	33012	
3178	0	32284	32743	
3179	0	32324	32446	
3180	0	33236	32775	
3181	0	32778	32789	
3182	0	33114	32576	
3183	0	33320	32787	
3184	0	32618	32340	
3185	0	31588	32069	
3186	0	31672	32274	
3187	0	31616	32733	
3188	0	31272	32675	
3189	0	31244	33042	
3190	0	32100	32698	
3191	0	32880	32767	
3192	0	32700	33024	
3193	0	33416	32800	
3194	0	34654	32878	
3195	0	35382	33148	
3196	0	35724	32905	
3197	0	35892	32808	
3198	0	35106	32760	
3199	0	33124	32477	
3200	0	31336	32813	
3201	0	31419	32397	
3202	0	31188	32370	
3203	0	30140	32216	
3204	0	28856	32366	
3205	0	28931	32706	
3206	0	31009	32387	
3207	0	32462	32568	
3208	0	32520	32353	
3209	0	32690	32608	
3210	0	32817	32560	
3211	0	33602	32754	
3212	0	34024	32728	
3213	0	33575	33191	
3214	0	33532	33020	
3215	0	34089	33362	
3216	0	34928	32890	
3217	0	34998	32797	
3218	0	34338	32829	
3219	0	35386	32520	
3220	0	35962	33017	
3221	0	35324	33128	
3222	0	33225	33103	
3223	0	31624	33122	
3224	0	31058	32892	
3225	0	30587	32486	
3226	0	30113	32737	
3227	0	29176	32506	
3228	0	28238	32440	
3229	0	29378	32555	
3230	0	31748	32420	
3231	0	33158	32361	
3232	0	33845	32720	
3233	0	33556	32793	
3234	0	33232	32763	
3235	0	33744	33241	
3236	0	33636	33247	
3237	0	33698	32914	
3238	0	35112	32754	
3239	0	34396	32391	
3240	0	32814	32403	
3241	0	32537	32550	
3242	0	31848	32738	
3243	0	31452	32245	
3244	0	29664	32262	
3245	0	28715	32728	
3246	0	30106	32986	
3247	0	31048	33530	
3248	0	32004	33147	
3249	0	34438	32837	
3250	0	34832	32243	
3251	0	34348	32549	
3252	0	33580	32922	
3253	0	34218	32976	
3254	0	35406	33104	
3255	0	35896	33321	
3256	0	35378	33375	
3257	0	35576	33073	
3258	0	37282	32843	
3259	0	37930	32619	
3260	0	37672	32137	
3261	0	35924	32391	
3262	0	33698	32453	
3263	0	30404	31960	
3264	0	26758	31942	
3265	0	24628	31966	
3266	0	24905	32412	
3267	0	27140	32725	
3268	0	29181	32547	
3269	0	29964	32543	
3270	0	30552	32949	
3271	0	30996	33043	
3272	0	33188	33278	
3273	0	35834	33722	
3274	0	36802	33175	
3275	0	35636	33061	
3276	0	34580	32962	
3277	0	34149	32975	
3278	0	32774	33001	
3279	0	31980	32570	
3280	0	32676	32263	
3281	0	32322	31971	
3282	0	31688	31865	
3283	0	31526	32301	
3284	0	32912	32380	
3285	0	32892	32672	
3286	0	31928	33300	
3287	0	31259	33480	
3288	0	30889	33185	
3289	0	30526	32911	
3290	0	30385	32251	
3291	0	32672	32792	
3292	0	35306	32866	
3293	0	35784	32724	
3294	0	35584	32576	
3295	0	35412	32114	
3296	0	34628	32555	
3297	0	33978	33022	
3298	0	35104	33257	
3299	0	36656	33143	
3300	0	37304	33220	
3301	0	36246	33194	
3302	0	34498	32721	
3303	0	33641	32486	
3304	0	31332	31949	
3305	0	28500	31996	
3306	0	27338	31916	
3307	0	26746	32224	
3308	0	28096	32531	
3309	0	29505	33162	
3310	0	31366	32839	
3311	0	31954	32530	
3312	0	33836	32556	
3313	0	36276	32915	
3314	0	36928	33010	
3315	0	36806	33472	
3316	0	34802	33740	
3317	0	31130	34045	
3318	0	29564	33883	
3319	0	30338	33734	
3320	0	30076	32570	
3321	0	30898	31934	
3322	0	30736	31138	
3323	0	30424	31406	
3324	0	31931	32158	
3325	0	34756	31864	
3326	0	36152	32182	
3327	0	36290	32258	
3328	0	36284	32250	
3329	0	35754	32666	
3330	0	34628	32178	
3331	0	32722	32139	
3332	0	31512	32545	
3333	0	31884	33479	
3334	0	33180	33863	
3335	0	33882	34235	
3336	0	33129	34450	
3337	0	31044	34372	
3338	0	31368	33716	
3339	0	33019	33096	
3340	0	33952	32825	
3341	0	35328	32765	
3342	0	36728	32370	
3343	0	35658	31924	
3344	0	33944	32262	
3345	0	31636	32198	
3346	0	28628	31844	
3347	0	24304	31705	
3348	0	24185	31915	
3349	0	30600	32540	
3350	0	37458	32800	
3351	0	39968	32562	
3352	0	38208	32420	
3353	0	34618	32949	
3354	0	32752	33470	
3355	0	29716	33154	
3356	0	28065	32454	
3357	0	28628	32274	
3358	0	28912	33785	
3359	0	31504	34080	
3360	0	33672	33716	
3361	0	36238	32805	
3362	0	37052	32078	
3363	0	35050	31811	
3364	0	34030	31981	
3365	0	35540	31701	
3366	0	33256	31807	
3367	0	28656	31640	
3368	0	28413	32584	
3369	0	29688	33104	
3370	0	31771	32949	
3371	0	33236	33085	
3372	0	31992	33088	
3373	0	29336	34272	
3374	0	28624	34028	
3375	0	31372	33530	
3376	0	31146	32903	
3377	0	33192	32794	
3378	0	33440	32876	
3379	0	36956	33724	
3380	0	41688	34201	
3381	0	40329	32988	
3382	0	38224	32219	
3383	0	37164	32313	
3384	0	35847	32105	
3385	0	32674	31512	
3386	0	29324	32278	
3387	0	30224	32695	
3388	0	30276	32801	
3389	0	31860	32370	
3390	0	33048	31662	
3391	0	31213	31430	
3392	0	31604	31458	
3393	0	32602	32211	
3394	0	33893	32700	
3395	0	34152	32050	
3396	0	29572	32470	
3397	0	23684	32832	
3398	0	19176	34134	
3399	0	19052	34446	
3400	0	23192	34079	
3401	0	28104	33532	
3402	0	32902	32426	
3403	0	40660	32302	
3404	0	51233	31904	
3405	0	57862	31212	
3406	0	55464	31362	
3407	0	50944	31460	
3408	0	46096	32437	
3409	0	36600	32990	
3410	0	29868	32722	
3411	0	22044	32258	
3412	0	18302	32188	
3413	0	19788	32918	
3414	0	19645	33394	
3415	0	19637	34240	
3416	0	21262	34594	
3417	0	22552	35139	
3418	0	25645	34779	
3419	0	25448	33784	
3420	0	26476	32783	
3421	0	29144	32333	
3422	0	31668	33650	
3423	0	32096	33885	
3424	0	35776	33232	
3425	0	45458	31764	
3426	0	52660	31232	
3427	0	53764	31890	
3428	0	51586	30816	
3429	0	44456	30500	
3430	0	29296	30668	
3431	0	18980	30748	
3432	0	15305	31612	
3433	0	18498	34293	
3434	0	24120	34622	
3435	0	31424	34640	
3436	0	41144	34117	
3437	0	42976	32980	
3438	0	39264	32462	
3439	0	29394	32116	
3440	0	23524	32229	
3441	0	18160	32288	
3442	0	19440	32427	
3443	0	27017	32646	
3444	0	33377	32860	
3445	0	39700	32594	
3446	0	48448	32145	
3447	0	56028	32405	
3448	0	53462	32555	
3449	0	42113	32269	
3450	0	30280	32262	
3451	0	20856	33236	
3452	0	15876	32674	
3453	0	17496	32592	
3454	0	20992	32784	
3455	0	34348	33024	
3456	0	37856	33582	
3457	0	34258	33287	
3458	0	31590	32416	
3459	0	27516	32999	
3460	0	28058	33431	
3461	0	35066	33494	
3462	0	41674	33201	
3463	0	44928	32952	
3464	0	48804	32996	
3465	0	48016	32263	
3466	0	40888	31168	
3467	0	35376	31196	
3468	0	27884	31876	
3469	0	18356	32320	
3470	0	13680	32418	
3471	0	19188	30840	
3472	0	29220	31468	
3473	0	38396	32772	
3474	0	45336	33260	
3475	0	46788	33468	
3476	0	46160	33568	
3477	0	36484	33024	
3478	0	20744	33736	
3479	0	15426	33956	
3480	0	21078	33487	
3481	0	25356	32864	
3482	0	22833	32888	
3483	0	20208	32367	
3484	0	25280	32530	
3485	0	37868	32252	
3486	0	45904	32162	
3487	0	46948	32596	
3488	0	42596	33682	
3489	0	36530	33656	
3490	0	29220	33352	
3491	0	25880	32094	
3492	0	26072	32448	
3493	0	21634	32546	
3494	0	23816	32796	
3495	0	35224	32248	
3496	0	40144	32751	
3497	0	41356	32500	
3498	0	42390	32085	
3499	0	44960	31748	
3500	0	50368	31212	
3501	0	54834	31665	
3502	0	53984	32578	
3503	0	51490	33264	
3504	0	46376	33410	
3505	0	38644	33324	
3506	0	24296	33644	
3507	0	7923	33816	
3508	0	337	32720	
3509	0	0	31464	
3510	0	5338	31438	
3511	0	21680	33307	
3512	0	36708	34244	
3513	0	50066	34604	
3514	0	56216	33691	
3515	0	49908	32488	
3516	0	38152	33205	
3517	0	27416	33300	
3518	0	13757	32792	
3519	0	4395	32754	
3520	0	6321	33042	
3521	0	9681	33223	
3522	0	12626	32722	
3523	0	19387	30868	
3524	0	40260	29437	
3525	0	50752	29498	
3526	0	56136	30972	
3527	0	55160	32325	
3528	0	50000	32444	
3529	0	43648	32598	
3530	0	35524	33306	
3531	0	35056	34281	
3532	0	36178	34213	
3533	0	37202	33570	
3534	0	39568	32548	
3535	0	31952	32776	
3536	0	25876	34834	
3537	0	26484	35688	
3538	0	31380	35128	
3539	0	36768	34768	
3540	0	41226	33531	
3541	0	39584	32412	
3542	0	36340	30794	
3543	0	29144	28616	
3544	0	21058	28002	
3545	0	23578	29910	
3546	0	27262	29398	
3547	0	29760	29999	
3548	0	32496	30040	
3549	0	32676	31792	
3550	0	33065	32929	
3551	0	34756	34939	
3552	0	37376	35311	
3553	0	34322	37140	
3554	0	29324	38432	
3555	0	30241	39721	
3556	0	35732	37831	
3557	0	30996	35476	
3558	0	19714	33108	
3559	0	19773	32366	
3560	0	27376	31404	
3561	0	31641	31712	
3562	0	33389	31664	
3563	0	25720	30101	
3564	0	26340	27680	
3565	0	31352	26640	
3566	0	33748	28548	
3567	0	35682	31456	
3568	0	37842	31521	
3569	0	37792	34311	
3570	0	41664	35736	
3571	0	44650	34434	
3572	0	45146	33352	
3573	0	46020	34136	
3574	0	43896	33150	
3575	0	38406	33048	
3576	0	31653	33992	
3577	0	27428	33552	
3578	0	24938	31976	
3579	0	19106	30648	
3580	0	15989	31268	
3581	0	18098	34038	
3582	0	22566	37012	
3583	0	30688	38282	
3584	0	41604	37526	
3585	0	46664	30868	
3586	0	46304	25752	
3587	0	39762	26280	
3588	0	31940	28754	
3589	0	33344	30736	
3590	0	39410	31986	
3591	0	46592	32226	
3592	0	52144	31624	
3593	0	53980	32512	
3594	0	45412	33304	
3595	0	31642	33224	
3596	0	22560	34388	
3597	0	13237	35148	
3598	0	8320	34768	
3599	0	9587	34354	
3600	0	19496	34848	
3601	0	25954	34133	
3602	0	27193	32710	
3603	0	28112	30600	
3604	0	28124	30075	
3605	0	33098	32534	
3606	0	38560	32708	
3607	0	44920	33248	
3608	0	52792	33129	
3609	0	58533	34034	
3610	0	56446	34240	
3611	0	53508	33056	
3612	0	50864	32548	
3613	0	40874	32448	
3614	0	18860	31804	
3615	0	4695	31272	
3616	0	0	30512	
3617	0	944	30896	
3618	0	5187	33057	
3619	0	8900	34337	
3620	0	12024	34952	
3621	0	33304	34858	
3622	0	47816	33772	
3623	0	53848	33817	
3624	0	54960	34372	
3625	0	51488	33595	
3626	0	47680	33111	
3627	0	39496	32512	
3628	0	24356	31748	
3629	0	15496	30700	
3630	0	19650	30032	
3631	0	24466	31732	
3632	0	27376	33825	
3633	0	37042	33025	
3634	0	45128	32848	
3635	0	45799	34600	
3636	0	36032	33642	
3637	0	23188	33138	
3638	0	23085	32127	
3639	0	30692	30754	
3640	0	34510	29432	
3641	0	38736	29575	
3642	0	39764	30870	
3643	0	38860	33450	
3644	0	43308	33492	
3645	0	44580	32596	
3646	0	38860	31102	
3647	0	31176	30971	
3648	0	28784	32201	
3649	0	26885	33224	
3650	0	21000	33416	
3651	0	25016	34206	
3652	0	27344	34549	
3653	0	30569	34348	
3654	0	33432	33947	
3655	0	35492	34116	
3656	0	39696	32976	
3657	0	50592	32120	
3658	0	56768	33028	
3659	0	54817	33970	
3660	0	52128	34650	
3661	0	31933	33974	
3662	0	15328	33024	
3663	0	4588	31548	
3664	0	125	31732	
3665	0	3605	30968	
3666	0	7528	29897	
3667	0	28232	30080	
3668	0	45788	32440	
3669	0	53536	34596	
3670	0	53698	33856	
3671	0	47576	32670	
3672	0	38016	32314	
3673	0	24632	32378	
3674	0	17752	32202	
3675	0	16492	33446	
3676	0	16032	33772	
3677	0	21832	32152	
3678	0	33928	32352	
3679	0	41968	33356	
3680	0	45732	32612	
3681	0	48962	29786	
3682	0	48992	30906	
3683	0	41816	32996	
3684	0	36049	33814	
3685	0	36832	33652	
3686	0	33568	32457	
3687	0	27352	31012	
3688	0	20841	31464	
3689	0	16562	33338	
3690	0	15952	35223	
3691	0	27592	35225	
3692	0	41244	34708	
3693	0	49592	33492	
3694	0	48454	32800	
3695	0	39848	35340	
3696	0	29146	35216	
3697	0	22218	33923	
3698	0	27282	30502	
3699	0	35906	26843	
3700	0	40190	27076	
3701	0	39132	29152	
3702	0	36312	30790	
3703	0	31835	31513	
3704	0	22746	32092	
3705	0	20536	32780	
3706	0	20546	31576	
3707	0	21956	32348	
3708	0	29260	33019	
3709	0	41692	34096	
3710	0	49584	33402	
3711	0	54040	33800	
3712	0	56576	36096	
3713	0	55096	37129	
3714	0	52400	37588	
3715	0	49944	36960	
3716	0	33760	33220	
3717	0	18369	32600	
3718	0	3022	33064	
3719	0	0	32658	
3720	0	1313	31096	
3721	0	5637	30946	
3722	0	9280	30602	
3723	0	12353	30160	
3724	0	31200	30852	
3725	0	46842	31402	
3726	0	56888	30594	
3727	0	55448	30291	
3728	0	48404	31582	
3729	0	34392	33158	
3730	0	19624	35408	
3731	0	17724	36665	
3732	0	26498	34200	
3733	0	25336	29930	
3734	0	20322	29554	
3735	0	23618	31586	
3736	0	34794	34393	
3737	0	44146	37216	
3738	0	51920	37416	
3739	0	58872	34716	
3740	0	60912	32461	
3741	0	57856	30460	
3742	0	54666	28089	
3743	0	51460	28944	
3744	0	37509	28708	
3745	0	25193	29632	
3746	0	17251	32780	
3747	0	23832	37624	
3748	0	31158	39004	
3749	0	38908	38288	
3750	0	39576	37718	
3751	0	31916	35408	
3752	0	21344	31868	
3753	0	3899	28316	
3754	0	787	27313	
3755	0	4754	30141	
3756	0	8508	30176	
3757	0	11693	31252	
3758	0	38152	32024	
3759	0	51268	30848	
3760	0	51564	32477	
3761	0	43944	33016	
3762	0	29504	33528	
3763	0	26244	35648	
3764	0	29164	35119	
3765	0	32272	34784	
3766	0	37720	32356	
3767	0	39128	32569	
3768	0	34596	31074	
3769	0	31720	27470	
3770	0	30140	29837	
3771	0	33880	33408	
3772	0	45232	35440	
3773	0	50016	33168	
3774	0	55072	32128	
3775	0	56536	31878	
3776	0	53960	31362	
3777	0	32012	32188	
3778	0	17828	33557	
3779	0	12633	34804	
3780	0	8182	34968	
3781	0	10644	33398	
3782	0	17711	32704	
3783	0	28090	32210	
3784	0	38888	31464	
3785	0	45428	30885	
3786	0	45575	31514	
3787	0	45352	33072	
3788	0	48500	32628	
3789	0	44736	32924	
3790	0	31050	33080	
3791	0	13496	33696	
3792	0	7476	34500	
3793	0	17296	33786	
3794	0	26616	33456	
3795	0	33516	31938	
3796	0	31818	30790	
3797	0	33705	31568	
3798	0	38656	32584	
3799	0	39188	32454	
3800	0	39913	32132	
3801	0	38688	32084	
3802	0	34648	33437	
3803	0	33652	35268	
3804	0	41264	34580	
3805	0	46272	34216	
3806	0	43840	32420	
3807	0	35488	32292	
3808	0	35018	35251	
3809	0	32833	35615	
3810	0	27052	35210	
3811	0	15020	32008	
3812	0	7450	32276	
3813	0	6560	32650	
3814	0	25504	25824	
3815	0	39528	27188	
3816	0	40052	30778	
3817	0	36312	32652	
3818	0	32852	33892	
3819	0	26540	36880	
3820	0	22234	38964	
3821	0	23884	37868	
3822	0	34044	36058	
3823	0	42212	31976	
3824	0	43304	27492	
3825	0	37988	25732	
3826	0	32348	26104	
3827	0	31008	29928	
3828	0	34280	32602	
3829	0	40078	34172	
3830	0	47034	32858	
3831	0	56326	33358	
3832	0	57008	38728	
3833	0	54279	40824	
3834	0	47192	36156	
3835	0	29296	25232	
3836	0	19145	25958	
3837	0	12811	32668	
3838	0	10403	36472	
3839	0	12123	36070	
3840	0	17454	33586	
3841	0	20620	28994	
3842	0	23540	26283	
3843	0	25978	28491	
3844	0	34524	31992	
3845	0	40136	34412	
3846	0	40192	34080	
3847	0	37210	33562	
3848	0	35630	33360	
3849	0	36842	30888	
3850	0	38728	30500	
3851	0	38730	32158	
3852	0	43208	32292	
3853	0	47312	31608	
3854	0	46365	34404	
3855	0	43896	38544	
3856	0	30204	41360	
3857	0	15256	35824	
3858	0	9270	27980	
3859	0	6686	28452	
3860	0	7080	31468	
3861	0	19408	32870	
3862	0	30988	31864	
3863	0	37122	31418	
3864	0	36248	31870	
3865	0	43812	34098	
3866	0	53276	34104	
3867	0	55538	33286	
3868	0	54256	31840	
3869	0	48204	28850	
3870	0	42184	26157	
3871	0	40120	30340	
3872	0	42244	36488	
3873	0	38592	41224	
3874	0	33852	37936	
3875	0	28986	32328	
3876	0	24608	32220	
3877	0	11308	33322	
3878	0	547	34892	
3879	0	3281	36940	
3880	0	7228	34986	
3881	0	10613	32388	
3882	0	41416	31972	
3883	0	53877	31580	
3884	0	61584	30372	
3885	0	61326	30267	
3886	0	56824	31042	
3887	0	43080	30640	
3888	0	27412	32062	
3889	0	12356	31429	
3890	0	5420	29880	
3891	0	4574	29778	
3892	0	9994	32293	
3893	0	17180	32720	
3894	0	29178	32660	
3895	0	43225	32442	
3896	0	47740	33096	
3897	0	47512	32432	
3898	0	50072	31402	
3899	0	45716	31384	
3900	0	41094	33737	
3901	0	38124	37314	
3902	0	33376	38580	
3903	0	25990	39640	
3904	0	20380	33100	
3905	0	23283	30000	
3906	0	25112	33216	
3907	0	25352	36291	
3908	0	33088	34170	
3909	0	46760	28612	
3910	0	59588	23170	
3911	0	58472	25769	
3912	0	55384	30032	
3913	0	52496	32830	
3914	0	40338	33874	
3915	0	19688	33402	
3916	0	5294	33560	
3917	0	958	34984	
3918	0	8436	33849	
3919	0	12960	34162	
3920	0	18517	32565	
3921	0	29032	32332	
3922	0	35612	30792	
3923	0	36979	31303	
3924	0	32576	32933	
3925	0	25716	35290	
3926	0	16792	35328	
3927	0	17644	31958	
3928	0	25904	31666	
3929	0	37468	32524	
3930	0	47008	30664	
3931	0	54824	29798	
3932	0	62852	30113	
3933	0	61724	31464	
3934	0	58104	32966	
3935	0	54824	32833	
3936	0	32656	34200	
3937	0	9403	35520	
3938	0	498	34986	
3939	0	9876	33890	
3940	0	24192	34648	
3941	0	38616	33952	
3942	0	50872	33736	
3943	0	56169	32900	
3944	0	53292	32562	
3945	0	47366	32692	
3946	0	41092	32097	
3947	0	33664	31056	
3948	0	16248	31982	
3949	0	5231	32480	
3950	0	6421	32697	
3951	0	7588	32484	
3952	0	10246	33672	
3953	0	11853	34960	
3954	0	17854	34120	
3955	0	31216	32776	
3956	0	45640	32489	
3957	0	55242	32050	
3958	0	56112	31744	
3959	0	51432	29892	
3960	0	46568	30676	
3961	0	46296	34786	
3962	0	42648	36896	
3963	0	37232	35622	
3964	0	31424	31982	
3965	0	22473	30952	
3966	0	11131	30624	
3967	0	4918	28724	
3968	0	7788	28584	
3969	0	27042	34416	
3970	0	41360	34996	
3971	0	55890	35762	
3972	0	60338	34056	
3973	0	51112	32461	
3974	0	39701	29925	
3975	0	27380	30634	
3976	0	15372	32504	
3977	0	6144	33728	
3978	0	9133	35847	
3979	0	20060	36890	
3980	0	36618	35168	
3981	0	57388	29672	
3982	0	63456	31835	
3983	0	60224	36240	
3984	0	56656	34881	
3985	0	53560	29665	
3986	0	44412	26736	
3987	0	30810	34034	
3988	0	28377	35878	
3989	0	25772	29924	
3990	0	21384	28440	
3991	0	17365	29508	
3992	0	17346	29688	
3993	0	9146	29622	
3994	0	4536	25560	
3995	0	7010	27689	
3996	0	10320	34056	
3997	0	21152	37196	
3998	0	38874	36372	
3999	0	50128	34800	
4000	0	51016	33198	
4001	0	43496	34720	
4002	0	36332	35213	
4003	0	34328	35202	
4004	0	34218	34727	
4005	0	35718	35314	
4006	0	34340	35024	
4007	0	31264	31608	
4008	0	31196	31138	
4009	0	28344	31523	
4010	0	24745	30470	
4011	0	28368	28904	
4012	0	36114	30348	
4013	0	42944	32308	
4014	0	48064	33824	
4015	0	51640	36488	
4016	0	55968	36228	
4017	0	52132	36153	
4018	0	43652	35262	
4019	0	38624	34951	
4020	0	32125	33342	
4021	0	29028	31394	
4022	0	30460	29933	
4023	0	30466	27776	
4024	0	27464	30257	
4025	0	27604	31728	
4026	0	21794	32010	
4027	0	12961	32242	
4028	0	9514	33497	
4029	0	5378	31074	
4030	0	8258	33886	
4031	0	11419	37262	
4032	0	16736	35847	
4033	0	25836	36802	
4034	0	42000	35564	
4035	0	55960	37306	
4036	0	65458	34744	
4037	0	65464	22676	
4038	0	60692	26026	
4039	0	42832	35468	
4040	0	33376	42428	
4041	0	22072	35688	
4042	0	12554	20602	
4043	0	11281	22948	
4044	0	22060	27060	
4045	0	27296	29883	
4046	0	26098	29864	
4047	0	27536	32028	
4048	0	40520	35785	
4049	0	47380	36060	
4050	0	45732	35126	
4051	0	39042	36608	
4052	0	37510	36402	
4053	0	38764	33728	
4054	0	36800	31308	
4055	0	30384	32452	
4056	0	31438	35042	
4057	0	37248	33156	
4058	0	44468	33062	
4059	0	42370	36492	
4060	0	40394	39672	
4061	0	46128	35872	
4062	0	46456	28218	
4063	0	32844	28672	
4064	0	9504	28396	
4065	0	0	30980	
4066	0	2233	30814	
4067	0	6397	32464	
4068	0	28728	35076	
4069	0	49402	33288	
4070	0	58524	34226	
4071	0	52072	35395	
4072	0	41336	32442	
4073	0	30146	28842	
4074	0	16032	33684	
4075	0	8590	37440	
4076	0	24164	37212	
4077	0	36342	32370	
4078	0	37416	34910	
4079	0	35132	34510	
4080	0	31350	34078	
4081	0	28560	28892	
4082	0	30320	16990	
4083	0	32940	22728	
4084	0	34949	28736	
4085	0	39943	33756	
4086	0	44488	34880	
4087	0	42720	34264	
4088	0	35288	32336	
4089	0	22880	31248	
4090	0	13712	33081	
4091	0	18768	34157	
4092	0	32870	34640	
4093	0	41792	34516	
4094	0	43712	37860	
4095	0	39840	41954	
4096	0	35768	38856	
4097	0	32557	31022	
4098	0	33993	31416	
4099	0	37112	34768	
4100	0	38596	33584	
4101	0	34272	28545	
4102	0	29286	26270	
4103	0	30381	28105	
4104	0	32468	29460	
4105	0	39492	29434	
4106	0	46084	32696	
4107	0	46792	33266	
4108	0	45916	34270	
4109	0	38184	32752	
4110	0	26976	34006	
4111	0	20230	37404	
4112	0	20788	34762	
4113	0	26114	33010	
4114	0	29523	34600	
4115	0	32152	35752	
4116	0	40166	35314	
4117	0	41168	32896	
4118	0	30552	33704	
4119	0	24370	32652	
4120	0	19374	31001	
4121	0	22537	33948	
4122	0	27414	32083	
4123	0	29012	30508	
4124	0	33728	33771	
4125	0	29240	35706	
4126	0	22852	30146	
4127	0	21412	23944	
4128	0	25440	28692	
4129	0	26948	34272	
4130	0	32754	34304	
4131	0	38436	34476	
4132	0	41068	34462	
4133	0	41880	36198	
4134	0	49836	34752	
4135	0	58448	34644	
4136	0	54816	38754	
4137	0	46400	42996	
4138	0	38452	39866	
4139	0	25252	28632	
4140	0	14389	20692	
4141	0	9368	21168	
4142	0	16426	22917	
4143	0	27768	22872	
4144	0	32786	23394	
4145	0	35152	31524	
4146	0	38288	37625	
4147	0	37160	37712	
4148	0	29548	35320	
4149	0	24378	33328	
4150	0	26892	32908	
4151	0	33284	34112	
4152	0	40044	35288	
4153	0	43680	33833	
4154	0	48160	34252	
4155	0	51584	33504	
4156	0	46482	32654	
4157	0	36666	33801	
4158	0	19908	38824	
4159	0	3828	39588	
4160	0	2938	35579	
4161	0	6738	35068	
4162	0	10190	30556	
4163	0	28298	23972	
4164	0	40220	23286	
4165	0	45592	29722	
4166	0	46394	32284	
4167	0	44576	34308	
4168	0	43882	34464	
4169	0	43753	33405	
4170	0	41464	31525	
4171	0	42560	32008	
4172	0	40948	37578	
4173	0	36816	38542	
4174	0	29508	30326	
4175	0	24268	29664	
4176	0	25482	36516	
4177	0	33304	38544	
4178	0	41980	30760	
4179	0	42644	29817	
4180	0	39576	33973	
4181	0	37504	35040	
4182	0	33664	32008	
4183	0	21610	30496	
4184	0	16200	33410	
4185	0	20936	37886	
4186	0	19788	35408	
4187	0	23640	26488	
4188	0	28276	26806	
4189	0	30554	29496	
4190	0	33976	32182	
4191	0	36680	33744	
4192	0	43576	31690	
4193	0	48964	30832	
4194	0	49684	31924	
4195	0	46912	33093	
4196	0	39404	35356	
4197	0	30572	36614	
4198	0	27432	31984	
4199	0	19744	32544	
4200	0	9758	35274	
4201	0	14060	36447	
4202	0	17834	30596	
4203	0	25050	27680	
4204	0	36046	31327	
4205	0	43284	34624	
4206	0	41952	34616	
4207	0	37088	33720	
4208	0	35572	33786	
4209	0	38842	35046	
4210	0	39952	35033	
4211	0	34900	33863	
4212	0	33688	30098	
4213	0	29592	25817	
4214	0	20852	24904	
4215	0	25496	31076	
4216	0	40730	32624	
4217	0	51436	32676	
4218	0	56696	31988	
4219	0	55986	35000	
4220	0	50952	41028	
4221	0	35896	39704	
4222	0	23106	32042	
4223	0	14768	29216	
4224	0	8532	31352	
4225	0	2963	30788	
4226	0	10380	30966	
4227	0	20790	31982	
4228	0	26810	32916	
4229	0	31660	31910	
4230	0	35274	31170	
4231	0	37176	31960	
4232	0	40504	29278	
4233	0	44152	31346	
4234	0	51104	37032	
4235	0	49338	40730	
4236	0	41106	40736	
4237	0	33768	33196	
4238	0	22850	26256	
4239	0	9529	28816	
4240	0	10584	30774	
4241	0	22546	31984	
4242	0	29518	32600	
4243	0	30854	33680	
4244	0	33444	32744	
4245	0	35840	30576	
4246	0	43600	29784	
4247	0	50790	32544	
4248	0	52128	35561	
4249	0	51886	35412	
4250	0	47954	35162	
4251	0	41538	33787	
4252	0	34680	32586	
4253	0	27828	30452	
4254	0	21145	30026	
4255	0	15770	32829	
4256	0	15681	33850	
4257	0	13154	33248	
4258	0	12540	32328	
4259	0	22632	33252	
4260	0	30898	33890	
4261	0	37604	32473	
4262	0	42672	31440	
4263	0	43328	31735	
4264	0	42248	31049	
4265	0	40378	30242	
4266	0	37945	33771	
4267	0	33728	37012	
4268	0	32452	38277	
4269	0	31434	33819	
4270	0	33817	31024	
4271	0	35861	30350	
4272	0	35330	32452	
4273	0	34770	33529	
4274	0	36228	30962	
4275	0	37212	29225	
4276	0	37338	30247	
4277	0	35546	31894	
4278	0	33200	34755	
4279	0	31908	36408	
4280	0	36185	35800	
4281	0	40070	35650	
4282	0	38374	34894	
4283	0	33130	31369	
4284	0	32690	32232	
4285	0	30748	38136	
4286	0	22294	35981	
4287	0	14018	24436	
4288	0	6820	27661	
4289	0	8170	26640	
4290	0	21656	23824	
4291	0	32824	28052	
4292	0	40984	34992	
4293	0	42408	36258	
4294	0	41104	35570	
4295	0	38184	35410	
4296	0	34378	35602	
4297	0	34240	35456	
4298	0	37528	34892	
4299	0	39840	34182	
4300	0	38634	32568	
4301	0	37808	30976	
4302	0	38265	30704	
4303	0	38890	29148	
4304	0	40458	30012	
4305	0	40648	31825	
4306	0	38564	33349	
4307	0	31672	34572	
4308	0	29710	34411	
4309	0	30824	34734	
4310	0	25602	34344	
4311	0	18324	34313	
4312	0	14880	33280	
4313	0	13008	31419	
4314	0	23304	33848	
4315	0	36852	34752	
4316	0	45492	33344	
4317	0	48298	32912	
4318	0	45508	33287	
4319	0	40128	32068	
4320	0	34012	28893	
4321	0	30240	30320	
4322	0	31852	32468	
4323	0	32738	30442	
4324	0	29672	29658	
4325	0	27088	31824	
4326	0	30136	32810	
4327	0	28744	32688	
4328	0	24275	33240	
4329	0	26356	33948	
4330	0	30357	32997	
4331	0	30320	33814	
4332	0	30510	34424	
4333	0	34296	35044	
4334	0	39172	35514	
4335	0	45988	35648	
4336	0	49760	34019	
4337	0	51041	33370	
4338	0	49920	33338	
4339	0	41864	30810	
4340	0	32189	30548	
4341	0	23332	31308	
4342	0	20008	31064	
4343	0	15400	32546	
4344	0	18045	33464	
4345	0	23432	32627	
4346	0	24577	31986	
4347	0	19693	30430	
4348	0	17932	29702	
4349	0	25252	31004	
4350	0	36470	31996	
4351	0	42360	32704	
4352	0	44402	34736	
4353	0	43104	34678	
4354	0	39120	33896	
4355	0	36998	33702	
4356	0	34529	33028	
4357	0	32642	32972	
4358	0	28914	32976	
4359	0	27972	31835	
4360	0	32114	31816	
4361	0	36056	32655	
4362	0	37628	32000	
4363	0	36490	32119	
4364	0	33904	33689	
4365	0	32334	33559	
4366	0	32620	33468	
4367	0	29332	34017	
4368	0	28352	31568	
4369	0	29018	31052	
4370	0	31300	32588	
4371	0	34532	34984	
4372	0	35442	35816	
4373	0	37358	33477	
4374	0	36922	31578	
4375	0	35245	30788	
4376	0	33864	32218	
4377	0	32964	32274	
4378	0	35584	32262	
4379	0	37122	33095	
4380	0	34948	33488	
4381	0	33818	31460	
4382	0	32324	30639	
4383	0	31472	31640	
4384	0	28300	33188	
4385	0	27336	34392	
4386	0	27434	36048	
4387	0	29154	35311	
4388	0	26896	32554	
4389	0	29970	30599	
4390	0	38136	31262	
4391	0	43577	33650	
4392	0	43803	34804	
4393	0	38712	34216	
4394	0	30544	35312	
4395	0	23140	33837	
4396	0	23202	32390	
4397	0	26017	28716	
4398	0	30992	27500	
4399	0	33228	28663	
4400	0	33620	30245	
4401	0	31276	31176	
4402	0	31564	32540	
4403	0	35188	35616	
4404	0	35776	37036	
4405	0	35360	35939	
4406	0	35364	35594	
4407	0	34454	33959	
4408	0	35997	31272	
4409	0	35680	29370	
4410	0	35152	29949	
4411	0	34164	30835	
4412	0	33346	33135	
4413	0	28648	34746	
4414	0	27066	33969	
4415	0	29288	29496	
4416	0	33120	29513	
4417	0	38722	32764	
4418	0	42008	33753	
4419	0	40920	33968	
4420	0	34976	34244	
4421	0	26336	33992	
4422	0	15461	32600	
4423	0	13206	33172	
4424	0	19188	34468	
4425	0	31272	34716	
4426	0	38780	32327	
4427	0	39680	31554	
4428	0	42537	32058	
4429	0	43000	31198	
4430	0	37900	30698	
4431	0	32876	30775	
4432	0	26318	32270	
4433	0	23092	32640	
4434	0	24604	34758	
4435	0	30520	35748	
4436	0	35716	35812	
4437	0	38768	34244	
4438	0	42706	32632	
4439	0	44864	32187	
4440	0	43392	32357	
4441	0	39354	31812	
4442	0	34432	31842	
4443	0	27632	31816	
4444	0	23620	31783	
4445	0	21186	33568	
4446	0	19552	34089	
4447	0	25328	33664	
4448	0	31626	32134	
4449	0	34052	30568	
4450	0	34660	31288	
4451	0	33604	33526	
4452	0	36522	33862	
4453	0	39234	35152	
4454	0	37584	34250	
4455	0	34768	33526	
4456	0	28170	33737	
4457	0	26988	33408	
4458	0	30020	32239	
4459	0	32157	30633	
4460	0	31889	27764	
4461	0	34340	27028	
4462	0	35704	29277	
4463	0	36078	33074	
4464	0	34384	36061	
4465	0	33874	37816	
4466	0	34568	35342	
4467	0	35520	32538	
4468	0	37626	32420	
4469	0	39524	32872	
4470	0	40096	33018	
4471	0	37328	33184	
4472	0	31648	33280	
4473	0	29428	33689	
4474	0	30120	35021	
4475	0	30684	34876	
4476	0	30920	32232	
4477	0	26560	27936	
4478	0	24120	26156	
4479	0	31828	30236	
4480	0	37192	33336	
4481	0	38656	32938	
4482	0	38276	32976	
4483	0	36068	33968	
4484	0	28192	35613	
4485	0	20172	34864	
4486	0	16016	32826	
4487	0	19664	34176	
4488	0	24948	34314	
4489	0	34984	31738	
4490	0	45080	31004	
4491	0	49000	36336	
4492	0	49568	35540	
4493	0	45968	31634	
4494	0	38656	32396	
4495	0	28904	33528	
4496	0	18164	29208	
4497	0	11363	26176	
4498	0	18016	27168	
4499	0	31376	31836	
4500	0	38600	33521	
4501	0	40344	32504	
4502	0	41426	32156	
4503	0	34416	32408	
4504	0	32124	34240	
4505	0	33264	33890	
4506	0	30424	34538	
4507	0	26869	34557	
4508	0	27608	34176	
4509	0	30161	34857	
4510	0	32080	33176	
4511	0	37320	31808	
4512	0	40912	31497	
4513	0	42140	32516	
4514	0	39112	33078	
4515	0	31150	34400	
4516	0	26204	33938	
4517	0	23580	30690	
4518	0	18820	28636	
4519	0	23282	30084	
4520	0	30258	32800	
4521	0	36560	34793	
4522	0	39296	34130	
4523	0	41748	33908	
4524	0	44776	33642	
4525	0	46336	34304	
4526	0	40620	33736	
4527	0	32592	32933	
4528	0	24333	33176	
4529	0	22606	34339	
4530	0	25128	34694	
4531	0	26938	33844	
4532	0	32129	32242	
4533	0	37736	31338	
4534	0	38164	30662	
4535	0	36804	29805	
4536	0	31702	30480	
4537	0	29280	31407	
4538	0	30774	33692	
4539	0	33042	34980	
4540	0	34708	35124	
4541	0	34160	38022	
4542	0	33824	33680	
4543	0	34040	28012	
4544	0	34368	28466	
4545	0	36656	30592	
4546	0	41364	32712	
4547	0	41902	30896	
4548	0	39276	29580	
4549	0	29900	32600	
4550	0	21966	35680	
4551	0	23172	35198	
4552	0	28728	33344	
4553	0	33948	35924	
4554	0	35260	34992	
4555	0	38312	32522	
4556	0	41604	36848	
4557	0	39346	38919	
4558	0	29216	36264	
4559	0	18554	30664	
4560	0	16152	33673	
4561	0	18950	32704	
4562	0	21720	28102	
4563	0	33620	26528	
4564	0	41552	26536	
4565	0	39820	25564	
4566	0	34258	27250	
4567	0	26852	29110	
4568	0	21750	28960	
4569	0	23556	33336	
4570	0	33300	37448	
4571	0	40124	38456	
4572	0	43992	37314	
4573	0	44550	32644	
4574	0	42280	33728	
4575	0	35280	34209	
4576	0	31874	33249	
4577	0	29076	33799	
4578	0	27480	33235	
4579	0	32281	30544	
4580	0	35717	27217	
4581	0	37456	31632	
4582	0	33074	35624	
4583	0	28290	37112	
4584	0	32841	33320	
4585	0	40328	32192	
4586	0	42792	31610	
4587	0	37936	31906	
4588	0	25244	32742	
4589	0	15283	30737	
4590	0	11513	31538	
4591	0	20005	32860	
4592	0	31329	34104	
4593	0	39838	35016	
4594	0	42880	34672	
4595	0	42561	34485	
4596	0	40828	33577	
4597	0	40120	33379	
4598	0	37498	32665	
4599	0	37833	31864	
4600	0	37216	31669	
4601	0	34632	31632	
4602	0	30120	30994	
4603	0	25434	31394	
4604	0	25602	33362	
4605	0	24473	33921	
4606	0	23988	33082	
4607	0	29328	34972	
4608	0	38064	33418	
4609	0	40777	31019	
4610	0	39828	32844	
4611	0	35596	33412	
4612	0	31996	33268	
4613	0	31496	32640	
4614	0	29408	32270	
4615	0	31012	35638	
4616	0	32254	38494	
4617	0	31425	37337	
4618	0	33240	34976	
4619	0	40232	32792	
4620	0	40700	40728	
4621	0	38730	38760	
4622	0	35360	38860	
4623	0	29800	43928	
4624	0	31720	40400	
4625	0	36592	18420	
4626	0	34206	343	
4627	0	24352	3189	
4628	0	15794	11534	
4629	0	15868	23765	
4630	0	22860	29568	
4631	0	32470	33672	
4632	0	37496	38444	
4633	0	40556	40778	
4634	0	44038	43579	
4635	0	44976	42860	
4636	0	42096	39767	
4637	0	36520	35544	
4638	0	33672	34254	
4639	0	31636	36266	
4640	0	28184	36604	
4641	0	22026	35058	
4642	0	17974	33762	
4643	0	25533	33858	
4644	0	32832	32612	
4645	0	33650	31405	
4646	0	36704	32704	
4647	0	37168	31917	
4648	0	35578	30937	
4649	0	33632	30551	
4650	0	28924	31371	
4651	0	26984	32482	
4652	0	25216	33352	
4653	0	25464	33667	
4654	0	26970	33811	
4655	0	27832	32568	
4656	0	30470	31169	
4657	0	37018	33488	
4658	0	41216	33490	
4659	0	41472	34311	
4660	0	39616	34840	
4661	0	38004	34288	
4662	0	37122	32909	
4663	0	34808	32623	
4664	0	32832	32436	
4665	0	27439	31828	
4666	0	28101	31181	
4667	0	34205	31936	
4668	0	43224	33272	
4669	0	48718	32372	
4670	0	50544	30722	
4671	0	47732	30036	
4672	0	39528	30784	
4673	0	30320	33456	
4674	0	18576	33996	
4675	0	8755	34264	
4676	0	9516	33847	
4677	0	19938	34148	
4678	0	26320	33734	
4679	0	30120	32116	
4680	0	34936	31940	
4681	0	42308	31992	
4682	0	43752	30192	
4683	0	40476	31640	
4684	0	35540	33209	
4685	0	32952	34260	
4686	0	30840	34354	
4687	0	28708	36268	
4688	0	27428	34384	
4689	0	29092	32242	
4690	0	32362	32334	
4691	0	34820	32239	
4692	0	37244	31793	
4693	0	36614	32069	
4694	0	36216	33042	
4695	0	33712	32836	
4696	0	30740	32154	
4697	0	29444	31984	
4698	0	33306	31138	
4699	0	32389	29548	
4700	0	28356	29338	
4701	0	24818	30441	
4702	0	25760	32848	
4703	0	30914	37292	
4704	0	41056	37488	
4705	0	51624	36536	
4706	0	56648	34624	
4707	0	52032	36608	
4708	0	41576	37085	
4709	0	28146	34992	
4710	0	14042	33584	
4711	0	7966	32343	
4712	0	12456	29388	
4713	0	20637	23614	
4714	0	27898	21824	
4715	0	40856	22530	
4716	0	52620	25296	
4717	0	55712	31238	
4718	0	52231	35740	
4719	0	42566	36144	
4720	0	29864	39096	
4721	0	13473	38528	
4722	0	4243	39384	
4723	0	6507	39764	
4724	0	12440	33061	
4725	0	19188	29530	
4726	0	28453	33044	
4727	0	37932	34976	
4728	0	41276	33404	
4729	0	41453	32274	
4730	0	42888	32921	
4731	0	43252	30176	
4732	0	40408	25537	
4733	0	36742	27248	
4734	0	31708	29693	
4735	0	29433	29152	
4736	0	28984	30569	
4737	0	29640	33072	
4738	0	31918	35344	
4739	0	30386	36040	
4740	0	29648	35066	
4741	0	36242	34012	
4742	0	39940	33856	
4743	0	40528	33768	
4744	0	47356	32289	
4745	0	50964	32196	
4746	0	48377	32680	
4747	0	40644	33588	
4748	0	29601	34568	
4749	0	21900	33888	
4750	0	15332	32576	
4751	0	11554	32208	
4752	0	12091	33866	
4753	0	15118	35045	
4754	0	26754	33872	
4755	0	34068	32384	
4756	0	37386	32240	
4757	0	42648	31828	
4758	0	47020	32788	
4759	0	47284	33674	
4760	0	48224	33678	
4761	0	45369	32421	
4762	0	41769	32153	
4763	0	39666	30884	
4764	0	34668	30912	
4765	0	28883	31020	
4766	0	24568	31252	
4767	0	20436	32556	
4768	0	17664	35356	
4769	0	17970	35975	
4770	0	21538	34503	
4771	0	24464	33520	
4772	0	32066	32688	
4773	0	35266	32046	
4774	0	32552	31572	
4775	0	35300	31494	
4776	0	34560	30354	
4777	0	32088	32382	
4778	0	31696	34803	
4779	0	34460	34284	
4780	0	38388	33446	
4781	0	43504	33034	
4782	0	46824	32704	
4783	0	48740	32626	
4784	0	44920	31854	
4785	0	37853	32936	
4786	0	31792	35978	
4787	0	23492	32476	
4788	0	14360	30956	
4789	0	13709	34050	
4790	0	29656	38555	
4791	0	45920	35524	
4792	0	57097	28088	
4793	0	56576	25698	
4794	0	53762	31728	
4795	0	51112	31067	
4796	0	48810	27120	
4797	0	35168	30188	
4798	0	5465	34945	
4799	0	0	39812	
4800	0	0	36994	
4801	0	2730	31560	
4802	0	6870	31113	
4803	0	10308	31912	
4804	0	13220	29920	
4805	0	15722	26328	
4806	0	17885	29264	
4807	0	32340	33560	
4808	0	42864	35650	
4809	0	49892	38280	
4810	0	50720	34486	
4811	0	50323	32672	
4812	0	53032	31602	
4813	0	50912	26306	
4814	0	45016	25330	
4815	0	43426	28000	
4816	0	46720	31289	
4817	0	48120	34008	
4818	0	51040	35491	
4819	0	47822	36142	
4820	0	40740	32914	
4821	0	32436	31600	
4822	0	23272	32770	
4823	0	14506	35067	
4824	0	14176	35984	
4825	0	17848	33488	
4826	0	17464	34260	
4827	0	19245	36354	
4828	0	23344	34744	
4829	0	30466	32120	
4830	0	49984	32280	
4831	0	59712	32608	
4832	0	57856	33178	
4833	0	54738	33466	
4834	0	51920	33602	
4835	0	49488	33677	
4836	0	23856	32964	
4837	0	2932	33250	
4838	0	0	32412	
4839	0	0	32110	
4840	0	4938	30930	
4841	0	8682	30852	
4842	0	12568	30600	
4843	0	41216	30690	
4844	0	51128	31144	
4845	0	50220	32770	
4846	0	42720	34594	
4847	0	35698	33588	
4848	0	31776	32448	
4849	0	31616	32447	
4850	0	31270	32472	
4851	0	31029	33062	
4852	0	31314	33178	
4853	0	30598	33386	
4854	0	31772	33982	
4855	0	34578	34376	
4856	0	36442	33788	
4857	0	40410	34578	
4858	0	42980	33309	
4859	0	48008	32768	
4860	0	46179	32738	
4861	0	38184	31718	
4862	0	43560	32072	
4863	0	44252	31800	
4864	0	34336	31506	
4865	0	28226	30802	
4866	0	27200	32005	
4867	0	30504	33238	
4868	0	36418	34436	
4869	0	35272	33676	
4870	0	24830	31618	
4871	0	12768	31844	
4872	0	5417	31693	
4873	0	9953	31538	
4874	0	20534	31104	
4875	0	36264	33002	
4876	0	40036	33884	
4877	0	37084	33092	
4878	0	33680	33856	
4879	0	29480	34052	
4880	0	27666	32283	
4881	0	25338	32049	
4882	0	23968	32652	
4883	0	25994	32304	
4884	0	29362	31239	
4885	0	33240	30560	
4886	0	41664	31258	
4887	0	50556	33050	
4888	0	54692	34768	
4889	0	52464	31840	
4890	0	44424	29098	
4891	0	33217	31430	
4892	0	26322	34948	
4893	0	26550	36952	
4894	0	29576	37532	
4895	0	32224	34808	
4896	0	38020	34124	
4897	0	49720	33318	
4898	0	55864	31672	
4899	0	53793	30412	
4900	0	46712	31128	
4901	0	28324	31496	
4902	0	17810	33570	
4903	0	8814	35456	
4904	0	11280	33586	
4905	0	15908	32245	
4906	0	16035	31070	
4907	0	15869	31552	
4908	0	22072	33232	
4909	0	29069	32906	
4910	0	33116	32508	
4911	0	34704	31332	
4912	0	32238	31138	
4913	0	30036	32420	
4914	0	31750	32622	
4915	0	40066	32832	
4916	0	45179	33138	
4917	0	45336	34020	
4918	0	41768	32554	
4919	0	36284	31338	
4920	0	30658	31028	
4921	0	29192	32193	
4922	0	36160	31800	
4923	0	41944	31771	
4924	0	43232	31725	
4925	0	40624	32916	
4926	0	32664	33164	
4927	0	23728	33134	
4928	0	32272	33604	
4929	0	31648	34850	
4930	0	27220	34224	
4931	0	24605	33028	
4932	0	22545	32356	
4933	0	22068	32662	
4934	0	23626	32687	
4935	0	31496	32851	
4936	0	52880	34424	
4937	0	59120	35235	
4938	0	50569	32820	
4939	0	40940	32233	
4940	0	40938	31553	
4941	0	40418	31032	
4942	0	31114	31776	
4943	0	18444	33070	
4944	0	9804	33412	
4945	0	8950	32724	
4946	0	14225	31261	
4947	0	23284	30546	
4948	0	32329	31593	
4949	0	33746	32824	
4950	0	29440	33536	
4951	0	24988	32440	
4952	0	21339	32564	
4953	0	20566	32803	
4954	0	24194	33118	
4955	0	31030	33912	
4956	0	45072	33312	
4957	0	56032	32832	
4958	0	59952	32086	
4959	0	57008	32525	
4960	0	53484	32687	
4961	0	43330	33164	
4962	0	31580	33194	
4963	0	21523	32020	
4964	0	14580	31104	
4965	0	11958	31376	
4966	0	15662	33532	
4967	0	30780	35502	
4968	0	56232	35866	
4969	0	60422	33732	
4970	0	57488	31668	
4971	0	52212	31937	
4972	0	45984	31746	
4973	0	33290	32308	
4974	0	23544	33273	
4975	0	29248	32944	
4976	0	25592	33162	
4977	0	15270	33595	
4978	0	11349	32112	
4979	0	9955	31608	
4980	0	9588	32032	
4981	0	12488	31968	
4982	0	18476	32289	
4983	0	24362	33344	
4984	0	23992	32903	
4985	0	24012	32507	
4986	0	29106	31088	
4987	0	37058	30172	
4988	0	50896	31290	
4989	0	62320	31688	
4990	0	60616	31564	
4991	0	54024	32371	
4992	0	45872	34306	
4993	0	33696	34506	
4994	0	23122	36128	
4995	0	20172	34944	
4996	0	24589	33104	
4997	0	29889	32823	
4998	0	32172	31934	
4999	0	34184	33202	
5000	0	37088	33390	
5001	0	39288	33206	
5002	0	34906	32245	
5003	0	32214	31958	
5004	0	28905	32176	
5005	0	23486	32440	
5006	0	18953	32352	
5007	0	18706	32128	
5008	0	25952	31753	
5009	0	38872	31938	
5010	0	44864	31260	
5011	0	48325	32100	
5012	0	46806	32732	
5013	0	41328	31377	
5014	0	40588	31166	
5015	0	37981	34257	
5016	0	29016	36292	
5017	0	20436	35256	
5018	0	17886	32884	
5019	0	16705	31634	
5020	0	21996	31209	
5021	0	34968	32516	
5022	0	48192	32656	
5023	0	55296	31592	
5024	0	57884	33420	
5025	0	55544	34236	
5026	0	52722	34730	
5027	0	36568	32620	
5028	0	18209	30521	
5029	0	11488	31981	
5030	0	2598	32222	
5031	0	1747	33156	
5032	0	5700	35024	
5033	0	18332	36304	
5034	0	31197	33508	
5035	0	41787	31717	
5036	0	46936	31632	
5037	0	45125	32227	
5038	0	37216	32926	
5039	0	25424	32648	
5040	0	17456	33444	
5041	0	15150	33222	
5042	0	18744	32682	
5043	0	28968	31586	
5044	0	41048	29841	
5045	0	50020	31456	
5046	0	63392	34560	
5047	0	62444	34256	
5048	0	58738	31864	
5049	0	55332	30480	
5050	0	52432	30522	
5051	0	28172	31620	
5052	0	9334	30184	
5053	0	0	32348	
5054	0	1618	35065	
5055	0	5862	36274	
5056	0	9468	35728	
5057	0	12522	33730	
5058	0	33468	32704	
5059	0	43984	31956	
5060	0	48592	31560	
5061	0	51144	29818	
5062	0	54752	31264	
5063	0	59736	35512	
5064	0	58616	34446	
5065	0	55580	33298	
5066	0	46356	32122	
5067	0	33344	32263	
5068	0	20960	32896	
5069	0	7240	30682	
5070	0	185	29786	
5071	0	3459	30416	
5072	0	14218	32059	
5073	0	27008	31856	
5074	0	38392	33308	
5075	0	44340	36120	
5076	0	44024	36041	
5077	0	44234	34258	
5078	0	43784	32232	
5079	0	41312	31262	
5080	0	38509	31071	
5081	0	37344	33272	
5082	0	35084	35037	
5083	0	32802	33888	
5084	0	30268	32889	
5085	0	28088	32619	
5086	0	28688	32082	
5087	0	32676	32588	
5088	0	38136	31681	
5089	0	40656	33312	
5090	0	39972	31844	
5091	0	41568	31492	
5092	0	41760	32760	
5093	0	31984	34356	
5094	0	20672	34516	
5095	0	15032	34104	
5096	0	11868	32418	
5097	0	10891	31794	
5098	0	11568	32184	
5099	0	16651	32144	
5100	0	26921	32361	
5101	0	32294	33433	
5102	0	35536	34288	
5103	0	39808	34112	
5104	0	44740	31904	
5105	0	47148	31888	
5106	0	46408	32784	
5107	0	46832	32899	
5108	0	43702	31540	
5109	0	38044	33287	
5110	0	37072	32506	
5111	0	38616	31271	
5112	0	46704	31264	
5113	0	50912	31346	
5114	0	42528	31732	
5115	0	32120	32925	
5116	0	26276	33596	
5117	0	20440	32586	
5118	0	14082	31496	
5119	0	11209	31824	
5120	0	12672	32812	
5121	0	17673	32852	
5122	0	24480	32628	
5123	0	30437	32477	
5124	0	35200	32516	
5125	0	37980	32635	
5126	0	37220	32815	
5127	0	34514	33602	
5128	0	32916	33423	
5129	0	35352	32588	
5130	0	40920	31430	
5131	0	46126	32356	
5132	0	46034	34027	
5133	0	39532	34148	
5134	0	30620	33420	
5135	0	22547	34052	
5136	0	19620	34674	
5137	0	22641	32996	
5138	0	28998	31738	
5139	0	32284	31276	
5140	0	36520	32065	
5141	0	42812	33470	
5142	0	44444	34104	
5143	0	40156	32633	
5144	0	38608	31913	
5145	0	40096	34006	
5146	0	33664	35466	
5147	0	27591	32961	
5148	0	27412	31439	
5149	0	30238	30265	
5150	0	33568	31688	
5151	0	39546	31759	
5152	0	40672	30916	
5153	0	35092	30807	
5154	0	24856	30732	
5155	0	17594	33406	
5156	0	15251	36330	
5157	0	17596	34200	
5158	0	18260	32903	
5159	0	19876	31495	
5160	0	26252	30960	
5161	0	32904	31062	
5162	0	38140	33646	
5163	0	42969	33728	
5164	0	46936	33040	
5165	0	46352	35181	
5166	0	44664	35076	
5167	0	42652	33287	
5168	0	42468	32500	
5169	0	51344	33032	
5170	0	54864	33668	
5171	0	50852	33448	
5172	0	46032	33620	
5173	0	36440	33368	
5174	0	24496	31444	
5175	0	12312	29740	
5176	0	2890	30340	
5177	0	0	31301	
5178	0	3891	32500	
5179	0	7791	33573	
5180	0	11078	32576	
5181	0	13891	30520	
5182	0	53520	30592	
5183	0	65464	31768	
5184	0	65472	33969	
5185	0	60944	34564	
5186	0	52692	32768	
5187	0	31274	28528	
5188	0	18908	27800	
5189	0	10253	29416	
5190	0	8537	32684	
5191	0	14962	34061	
5192	0	23940	35012	
5193	0	31508	35424	
5194	0	39996	36256	
5195	0	39164	35384	
5196	0	34972	34287	
5197	0	33684	34234	
5198	0	36608	33680	
5199	0	43382	33038	
5200	0	51368	32044	
5201	0	53538	31672	
5202	0	51064	32541	
5203	0	47000	32542	
5204	0	42056	30770	
5205	0	33890	30453	
5206	0	24040	29940	
5207	0	14721	31176	
5208	0	6479	33284	
5209	0	2889	33146	
5210	0	8778	33256	
5211	0	23008	35780	
5212	0	34290	37884	
5213	0	40824	36188	
5214	0	44521	33364	
5215	0	41922	33400	
5216	0	33784	32350	
5217	0	26032	30515	
5218	0	22233	28396	
5219	0	33176	28650	
5220	0	43648	31174	
5221	0	46333	32334	
5222	0	45156	33602	
5223	0	42080	35392	
5224	0	36144	34418	
5225	0	30096	33454	
5226	0	24720	33280	
5227	0	21632	32356	
5228	0	25604	31238	
5229	0	37072	31268	
5230	0	48872	30905	
5231	0	49992	31734	
5232	0	42688	33330	
5233	0	32028	31184	
5234	0	23294	30890	
5235	0	19872	33659	
5236	0	16456	35104	
5237	0	17304	34976	
5238	0	23152	33242	
5239	0	33898	33540	
5240	0	40504	34630	
5241	0	42560	33778	
5242	0	37572	32848	
5243	0	31468	31468	
5244	0	27048	31682	
5245	0	26881	30574	
5246	0	30872	31208	
5247	0	36296	32586	
5248	0	39260	34192	
5249	0	38092	33381	
5250	0	37042	31164	
5251	0	41696	31468	
5252	0	36712	31812	
5253	0	26374	31250	
5254	0	21606	31250	
5255	0	24988	33256	
5256	0	33016	32568	
5257	0	35078	34887	
5258	0	35988	34988	
5259	0	35860	32535	
5260	0	34512	31588	
5261	0	32808	33204	
5262	0	29964	33668	
5263	0	26840	31544	
5264	0	22580	32219	
5265	0	19082	32416	
5266	0	18366	33324	
5267	0	21186	33394	
5268	0	32032	33160	
5269	0	44480	33036	
5270	0	55000	32296	
5271	0	56660	31253	
5272	0	51748	30900	
5273	0	45324	31900	
5274	0	40684	33912	
5275	0	32824	35328	
5276	0	30196	36236	
5277	0	33240	34137	
5278	0	35196	33462	
5279	0	32866	33004	
5280	0	26538	32348	
5281	0	19268	30618	
5282	0	15544	31108	
5283	0	14528	31688	
5284	0	20056	31712	
5285	0	32412	32834	
5286	0	44576	32760	
5287	0	48040	33034	
5288	0	44824	35039	
5289	0	40630	34786	
5290	0	34905	32936	
5291	0	28064	31660	
5292	0	24768	33274	
5293	0	25236	33065	
5294	0	29184	34272	
5295	0	37724	34652	
5296	0	47208	34256	
5297	0	47296	32058	
5298	0	41800	32164	
5299	0	33696	33312	
5300	0	25682	31988	
5301	0	20412	29731	
5302	0	17614	30210	
5303	0	12816	30688	
5304	0	8073	28744	
5305	0	12496	28388	
5306	0	26872	31840	
5307	0	44864	35792	
5308	0	62520	37944	
5309	0	63464	37570	
5310	0	59720	32938	
5311	0	56176	29600	
5312	0	53160	29740	
5313	0	30536	33728	
5314	0	12220	35488	
5315	0	0	34008	
5316	0	1196	30732	
5317	0	5448	28712	
5318	0	9115	28866	
5319	0	12216	32896	
5320	0	33900	36572	
5321	0	60704	37776	
5322	0	65472	35560	
5323	0	56442	32096	
5324	0	41168	31692	
5325	0	27984	31276	
5326	0	21120	30008	
5327	0	17249	29720	
5328	0	18197	29769	
5329	0	21872	30559	
5330	0	26224	30146	
5331	0	30198	30706	
5332	0	35472	32652	
5333	0	46812	34000	
5334	0	54856	35450	
5335	0	55768	34976	
5336	0	55600	34912	
5337	0	52720	33438	
5338	0	48161	32246	
5339	0	42976	32520	
5340	0	36581	33872	
5341	0	29216	34988	
5342	0	27292	36016	
5343	0	26152	34811	
5344	0	27544	33312	
5345	0	25386	32720	
5346	0	17398	35176	
5347	0	10024	37120	
5348	0	10598	38490	
5349	0	14020	36764	
5350	0	18154	30600	
5351	0	23624	28988	
5352	0	33827	28968	
5353	0	45312	28352	
5354	0	53210	28564	
5355	0	59556	27766	
5356	0	55012	30137	
5357	0	40784	37073	
5358	0	27328	40800	
5359	0	19037	40968	
5360	0	6070	41752	
5361	0	5299	35864	
5362	0	16712	26562	
5363	0	25130	22194	
5364	0	36218	23702	
5365	0	44786	29380	
5366	0	52090	34762	
5367	0	54328	33650	
5368	0	49328	26450	
5369	0	35740	24212	
5370	0	20946	26420	
5371	0	13920	31042	
5372	0	12700	31926	
5373	0	19968	34112	
5374	0	33985	36016	
5375	0	46571	36888	
5376	0	55776	34728	
5377	0	59960	30930	
5378	0	57626	28740	
5379	0	54517	29916	
5380	0	51737	32356	
5381	0	34785	36260	
5382	0	23152	35796	
5383	0	15790	35684	
5384	0	11356	34098	
5385	0	10125	36276	
5386	0	12958	34292	
5387	0	18907	32617	
5388	0	27308	39018	
5389	0	29992	47168	
5390	0	25976	48790	
5391	0	19549	39048	
5392	0	14611	23912	
5393	0	12822	14369	
5394	0	14754	16068	
5395	0	25424	24468	
5396	0	41848	28994	
5397	0	55000	27772	
5398	0	61858	28954	
5399	0	61776	32730	
5400	0	60738	36296	
5401	0	58698	34784	
5402	0	55482	34992	
5403	0	31560	35954	
5404	0	11008	36588	
5405	0	1647	40258	
5406	0	6772	35212	
5407	0	16482	29458	
5408	0	24832	32540	
5409	0	26476	35364	
5410	0	37584	36728	
5411	0	49024	37266	
5412	0	56336	35904	
5413	0	57004	34052	
5414	0	51266	35200	
5415	0	42396	34528	
5416	0	32580	27144	
5417	0	23792	24396	
5418	0	16760	23856	
5419	0	17536	26668	
5420	0	18306	33414	
5421	0	19105	37048	
5422	0	22449	38340	
5423	0	31860	38360	
5424	0	46746	39004	
5425	0	57953	37736	
5426	0	59208	33528	
5427	0	56224	31812	
5428	0	36792	31024	
5429	0	20252	35442	
5430	0	9955	35360	
5431	0	9186	31592	
5432	0	10983	33838	
5433	0	17532	33754	
5434	0	24346	31012	
5435	0	27706	20096	
5436	0	30808	14181	
5437	0	40352	21968	
5438	0	44682	37932	
5439	0	42172	47288	
5440	0	41428	41824	
5441	0	40408	29220	
5442	0	37496	22732	
5443	0	37556	22272	
5444	0	40712	18236	
5445	0	41770	15014	
5446	0	36584	29026	
5447	0	36412	43432	
5448	0	41724	48296	
5449	0	51576	39360	
5450	0	44528	34556	
5451	0	28328	33692	
5452	0	14614	39764	
5453	0	11871	45872	
5454	0	16195	43200	
5455	0	18698	36272	
5456	0	16188	36472	
5457	0	13312	40384	
5458	0	13128	38864	
5459	0	14836	31792	
5460	0	23148	29936	
5461	0	34624	38636	
5462	0	44144	40736	
5463	0	51780	34648	
5464	0	49980	26000	
5465	0	41606	24708	
5466	0	33394	24544	
5467	0	29390	22648	
5468	0	30216	11448	
5469	0	34568	6329	
5470	0	38932	21258	
5471	0	42152	37104	
5472	0	47436	37008	
5473	0	55280	36072	
5474	0	57448	34564	
5475	0	54872	32828	
5476	0	52120	30701	
5477	0	49677	33960	
5478	0	47560	43664	
5479	0	45718	47556	
5480	0	26570	41320	
5481	0	14434	37092	
5482	0	6576	37544	
5483	0	0	34480	
5484	0	0	28209	
5485	0	2737	31524	
5486	0	6841	41538	
5487	0	10274	47440	
5488	0	25652	41296	
5489	0	34298	38672	
5490	0	39634	26510	
5491	0	39298	17193	
5492	0	34186	18168	
5493	0	25830	29588	
5494	0	18688	37314	
5495	0	17516	33062	
5496	0	20528	33112	
5497	0	26388	30770	
5498	0	41276	18960	
5499	0	55376	17268	
5500	0	61568	30522	
5501	0	65410	42376	
5502	0	63104	39488	
5503	0	59152	26996	
5504	0	55696	24634	
5505	0	52742	27860	
5506	0	50216	33584	
5507	0	48024	36192	
5508	0	16701	32648	
5509	0	1658	31736	
5510	0	0	37776	
5511	0	0	40464	
5512	0	4890	41152	
5513	0	19794	36934	
5514	0	22724	36810	
5515	0	20588	42816	
5516	0	22952	42687	
5517	0	29034	36836	
5518	0	34562	25465	
5519	0	36356	26653	
5520	0	34125	33246	
5521	0	31682	30864	
5522	0	34454	32762	
5523	0	45828	28744	
5524	0	58250	32472	
5525	0	60422	33994	
5526	0	52424	22544	
5527	0	50976	17316	
5528	0	55360	13082	
5529	0	53672	28574	
5530	0	51130	43626	
5531	0	48840	48030	
5532	0	24032	35394	
5533	0	3055	27536	
5534	0	0	35556	
5535	0	0	47666	
5536	0	4255	52160	
5537	0	8116	44116	
5538	0	33888	36656	
5539	0	49648	35456	
5540	0	58380	24162	
5541	0	54042	2374	
5542	0	43424	4318	
5543	0	40028	23393	
5544	0	39458	34920	
5545	0	31776	38304	
5546	0	20541	37440	
5547	0	9805	38026	
5548	0	4804	37493	
5549	0	7688	35666	
5550	0	10938	43698	
5551	0	17364	50240	
5552	0	38456	44956	
5553	0	56164	30728	
5554	0	65452	11164	
5555	0	63928	8085	
5556	0	56232	23585	
5557	0	47946	39040	
5558	0	47072	47192	
5559	0	39424	47428	
5560	0	24572	38948	
5561	0	12920	34444	
5562	0	12041	40556	
5563	0	10586	35648	
5564	0	8745	18360	
5565	0	16600	12196	
5566	0	24036	25648	
5567	0	33844	30456	
5568	0	45744	26164	
5569	0	51524	30974	
5570	0	50912	36936	
5571	0	41528	36270	
5572	0	36548	35257	
5573	0	35576	29936	
5574	0	35335	29778	
5575	0	30282	37600	
5576	0	25632	44484	
5577	0	22866	41871	
5578	0	27992	40548	
5579	0	31744	40153	
5580	0	29768	40632	
5581	0	24714	29140	
5582	0	29992	23284	
5583	0	38588	21752	
5584	0	44864	28636	
5585	0	39832	35496	
5586	0	38796	39850	
5587	0	40148	35536	
5588	0	31432	30235	
5589	0	20027	25988	
5590	0	13424	23952	
5591	0	21412	21912	
5592	0	32796	26306	
5593	0	38688	35782	
5594	0	38218	39498	
5595	0	33117	39514	
5596	0	31296	36627	
5597	0	30834	36080	
5598	0	29485	33669	
5599	0	33976	32162	
5600	0	39192	35238	
5601	0	38060	39488	
5602	0	32336	35130	
5603	0	35312	26224	
5604	0	41988	30754	
5605	0	36812	35896	
5606	0	34544	45672	
5607	0	46688	50320	
5608	0	56284	41260	
5609	0	54904	10811	
5610	0	50152	12050	
5611	0	40472	23770	
5612	0	28200	25988	
5613	0	14448	26561	
5614	0	1336	22028	
5615	0	0	24740	
5616	0	3977	35104	
5617	0	9984	37800	
5618	0	15068	46752	
5619	0	30276	51136	
5620	0	35332	41488	
5621	0	32421	27160	
5622	0	36658	29078	
5623	0	47140	28772	
5624	0	62448	28488	
5625	0	62944	31082	
5626	0	59248	35412	
5627	0	55788	37382	
5628	0	43244	35698	
5629	0	11828	33444	
5630	0	6559	33202	
5631	0	9070	31152	
5632	0	25401	35194	
5633	0	37554	41124	
5634	0	39696	33406	
5635	0	38640	19420	
5636	0	31040	32464	
5637	0	19049	43120	
5638	0	13976	39176	
5639	0	15971	25658	
5640	0	22860	13480	
5641	0	41916	25728	
5642	0	52672	35082	
5643	0	61304	37712	
5644	0	59432	41725	
5645	0	56108	38174	
5646	0	50404	24896	
5647	0	37528	19112	
5648	0	23352	30520	
5649	0	16912	37664	
5650	0	3353	39464	
5651	0	1018	37192	
5652	0	5024	25652	
5653	0	8738	24608	
5654	0	11899	35596	
5655	0	14592	43712	
5656	0	26563	34888	
5657	0	38172	28424	
5658	0	45844	34552	
5659	0	48864	34464	
5660	0	48704	28533	
5661	0	47232	36320	
5662	0	46176	43894	
5663	0	45336	31280	
5664	0	46200	26138	
5665	0	44680	34321	
5666	0	42112	36724	
5667	0	36372	34972	
5668	0	32080	28704	
5669	0	31538	26568	
5670	0	35168	29550	
5671	0	35654	36020	
5672	0	36770	34008	
5673	0	35400	33884	
5674	0	29786	38344	
5675	0	28737	31538	
5676	0	34832	27448	
5677	0	34064	39430	
5678	0	37976	46296	
5679	0	42336	31872	
5680	0	41264	20619	
5681	0	35872	29674	
5682	0	26424	34624	
5683	0	23525	31020	
5684	0	19993	24688	
5685	0	12715	20356	
5686	0	9669	26996	
5687	0	13530	34664	
5688	0	21544	37484	
5689	0	34432	38794	
5690	0	48396	41802	
5691	0	53432	39892	
5692	0	48516	31041	
5693	0	40016	33608	
5694	0	28464	35040	
5695	0	17436	24715	
5696	0	11494	19196	
5697	0	16145	26676	
5698	0	29464	24964	
5699	0	45556	30237	
5700	0	55024	32302	
5701	0	51292	37028	
5702	0	36794	37404	
5703	0	18850	41954	
5704	0	11726	45324	
5705	0	24128	38488	
5706	0	35168	29680	
5707	0	37352	34300	
5708	0	41892	43296	
5709	0	52704	38024	
5710	0	58064	30218	
5711	0	53360	33016	
5712	0	40272	29844	
5713	0	23520	16942	
5714	0	10144	29412	
5715	0	1692	45226	
5716	0	4401	44412	
5717	0	8153	23156	
5718	0	11394	22928	
5719	0	14168	29324	
5720	0	25904	34168	
5721	0	38328	39722	
5722	0	42808	39912	
5723	0	48044	37024	
5724	0	51364	32572	
5725	0	51476	32360	
5726	0	50912	19144	
5727	0	52864	9649	
5728	0	54864	22356	
5729	0	56216	35192	
5730	0	53922	40812	
5731	0	51316	39416	
5732	0	40918	31984	
5733	0	36026	30258	
5734	0	27410	33512	
5735	0	21824	33280	
5736	0	19580	30236	
5737	0	23204	33431	
5738	0	24876	42922	
5739	0	19842	46828	
5740	0	16486	25833	
5741	0	23228	27000	
5742	0	33784	48074	
5743	0	38666	48906	
5744	0	38008	20332	
5745	0	29092	16611	
5746	0	16542	31032	
5747	0	5004	30506	
5748	0	7150	26242	
5749	0	10418	32172	
5750	0	13312	35220	
5751	0	37248	35858	
5752	0	49728	36864	
