# OpenSignals Text File Format
# {"00:07:80:3B:46:58": {"sensor": ["EMG", "EMG"], "device name": "00:07:80:3B:46:58", "column": ["nSeq", "DI", "ACC X", "ACC Y"], "sync interval": 2, "time": "16:1:58.16", "comments": "", "device connection": "BTH00:07:80:3B:46:58", "channels": [1, 2], "date": "2016-8-24", "mode": 0, "digital IO": [0, 1], "firmware version": 772, "device": "biosignalsplux", "position": 0, "sampling rate": 1000, "label": ["ACC X", "ACC Y"], "resolution": [16, 16], "special": [{}, {}]}}
# EndOfHeader
0	0	32648	32401	
1	0	32714	32489	
2	0	32568	32302	
3	0	32448	32082	
4	0	32484	31997	
5	0	32584	32249	
6	0	32684	32470	
7	0	32806	32678	
8	0	32976	32884	
9	0	33092	33302	
10	0	33165	33698	
11	0	33114	33842	
12	0	32938	33765	
13	0	32786	33461	
14	0	32699	32940	
15	0	32628	32434	
16	0	32590	32213	
17	0	32552	31970	
18	0	32592	32034	
19	0	32626	32444	
20	0	32680	32768	
21	0	32661	33182	
22	0	32604	32822	
23	0	32522	32076	
24	0	32608	31573	
25	0	32644	31183	
26	0	32748	31716	
27	0	32800	32448	
28	0	32904	33131	
29	0	33048	33372	
30	0	33124	33621	
31	0	33036	33883	
32	0	32944	33866	
33	0	32754	33213	
34	0	32697	32955	
35	0	32682	33032	
36	0	32612	32721	
37	0	32660	32878	
38	0	32654	32539	
39	0	32616	32443	
40	0	32652	32788	
41	0	32578	32519	
42	0	32504	32210	
43	0	32431	32034	
44	0	32612	32258	
45	0	32730	32300	
46	0	32812	32262	
47	0	32800	32087	
48	0	32916	32760	
49	0	33016	33150	
50	0	33048	33476	
51	0	33074	33299	
52	0	32906	33359	
53	0	32788	33531	
54	0	32654	33477	
55	0	32632	33383	
56	0	32647	33688	
57	0	32654	33116	
58	0	32680	32420	
59	0	32588	31689	
60	0	32620	31453	
61	0	32656	31728	
62	0	32504	31798	
63	0	32472	31681	
64	0	32602	31716	
65	0	32672	32455	
66	0	32808	32559	
67	0	32902	32758	
68	0	32950	33021	
69	0	32997	33287	
70	0	32980	33488	
71	0	32976	33706	
72	0	32840	33481	
73	0	32746	33099	
74	0	32754	33112	
75	0	32762	32975	
76	0	32733	32624	
77	0	32676	32639	
78	0	32660	32839	
79	0	32644	32666	
80	0	32720	32119	
81	0	32634	32032	
82	0	32488	31985	
83	0	32456	31660	
84	0	32562	32194	
85	0	32656	32618	
86	0	32760	32830	
87	0	32835	33167	
88	0	32928	33087	
89	0	33064	33055	
90	0	33060	33471	
91	0	33040	33725	
92	0	32796	33442	
93	0	32733	33065	
94	0	32720	33156	
95	0	32700	33101	
96	0	32676	32745	
97	0	32642	32658	
98	0	32682	32368	
99	0	32654	31962	
100	0	32583	32117	
101	0	32640	32327	
102	0	32514	32372	
103	0	32498	32064	
104	0	32524	31947	
105	0	32636	31987	
106	0	32736	32118	
107	0	32834	32634	
108	0	32964	32903	
109	0	33056	33245	
110	0	33008	33483	
111	0	33092	33349	
112	0	32880	33277	
113	0	32740	33123	
114	0	32676	32862	
115	0	32690	32828	
116	0	32708	32967	
117	0	32704	32964	
118	0	32621	32603	
119	0	32578	32757	
120	0	32612	32635	
121	0	32672	32484	
122	0	32508	32373	
123	0	32413	31976	
124	0	32552	31933	
125	0	32610	32250	
126	0	32786	32536	
127	0	32866	32576	
128	0	32992	32848	
129	0	33000	33330	
130	0	32992	33316	
131	0	33084	33627	
132	0	32874	33545	
133	0	32720	33146	
134	0	32768	33143	
135	0	32704	32951	
136	0	32696	32728	
137	0	32696	32575	
138	0	32652	32671	
139	0	32656	33092	
140	0	32646	33284	
141	0	32652	32940	
142	0	32445	32453	
143	0	32417	31598	
144	0	32598	31278	
145	0	32701	31591	
146	0	32808	31637	
147	0	32901	32174	
148	0	32973	32363	
149	0	33022	32382	
150	0	33076	33028	
151	0	33074	33252	
152	0	32921	33428	
153	0	32765	33443	
154	0	32713	33571	
155	0	32644	33589	
156	0	32667	33428	
157	0	32622	32878	
158	0	32596	32604	
159	0	32608	32674	
160	0	32576	32501	
161	0	32584	32649	
162	0	32452	32007	
163	0	32417	31799	
164	0	32584	31871	
165	0	32692	32105	
166	0	32830	32514	
167	0	32868	32754	
168	0	33004	32854	
169	0	33092	33383	
170	0	33028	33607	
171	0	33064	33661	
172	0	32952	33503	
173	0	32789	33155	
174	0	32750	32870	
175	0	32746	32971	
176	0	32667	32564	
177	0	32542	32159	
178	0	32632	32455	
179	0	32602	32367	
180	0	32652	32165	
181	0	32596	32469	
182	0	32460	32213	
183	0	32446	32055	
184	0	32588	32217	
185	0	32668	32280	
186	0	32800	32434	
187	0	32898	32775	
188	0	33016	33031	
189	0	33028	33447	
190	0	33088	33688	
191	0	33008	33370	
192	0	32866	33208	
193	0	32680	32792	
194	0	32689	32675	
195	0	32682	32697	
196	0	32696	32760	
197	0	32644	32879	
198	0	32660	33008	
199	0	32632	32711	
200	0	32668	32327	
201	0	32624	31728	
202	0	32492	31717	
203	0	32378	31797	
204	0	32556	32262	
205	0	32682	32534	
206	0	32816	32705	
207	0	32894	32830	
208	0	32955	32982	
209	0	32985	33127	
210	0	33064	33535	
211	0	33040	33634	
212	0	32872	33127	
213	0	32732	33105	
214	0	32704	33241	
215	0	32740	33110	
216	0	32750	32832	
217	0	32642	32631	
218	0	32648	32734	
219	0	32632	33012	
220	0	32623	33147	
221	0	32608	32887	
222	0	32420	31936	
223	0	32396	31499	
224	0	32498	31183	
225	0	32610	31739	
226	0	32800	32454	
227	0	32908	32568	
228	0	32980	32999	
229	0	33096	33411	
230	0	33120	33530	
231	0	33056	33830	
232	0	32904	33455	
233	0	32760	33027	
234	0	32760	33126	
235	0	32634	32950	
236	0	32582	32543	
237	0	32630	32679	
238	0	32592	32107	
239	0	32598	32387	
240	0	32610	32611	
241	0	32640	32573	
242	0	32514	32759	
243	0	32504	32663	
244	0	32594	32382	
245	0	32668	32418	
246	0	32738	32327	
247	0	32794	31915	
248	0	32937	31942	
249	0	33000	32837	
250	0	33054	33279	
251	0	32994	33392	
252	0	32872	33172	
253	0	32740	33202	
254	0	32752	33261	
255	0	32700	33158	
256	0	32692	32901	
257	0	32741	32835	
258	0	32708	32931	
259	0	32616	32638	
260	0	32722	32727	
261	0	32760	32841	
262	0	32546	32365	
263	0	32413	32120	
264	0	32496	32280	
265	0	32608	32327	
266	0	32760	32323	
267	0	32850	32514	
268	0	32974	32931	
269	0	33008	33186	
270	0	33001	32884	
271	0	33084	33031	
272	0	32908	33279	
273	0	32780	33093	
274	0	32760	33081	
275	0	32704	33077	
276	0	32609	32786	
277	0	32600	32502	
278	0	32700	32554	
279	0	32664	32377	
280	0	32632	32219	
281	0	32610	32658	
282	0	32384	32613	
283	0	32392	32611	
284	0	32508	32967	
285	0	32600	33039	
286	0	32786	32775	
287	0	32882	32615	
288	0	32960	33211	
289	0	33034	33437	
290	0	33084	33218	
291	0	32969	32884	
292	0	32864	32571	
293	0	32734	32356	
294	0	32730	32244	
295	0	32696	32100	
296	0	32760	32501	
297	0	32737	32551	
298	0	32700	32736	
299	0	32682	32801	
300	0	32704	32703	
301	0	32658	32929	
302	0	32440	32641	
303	0	32456	32391	
304	0	32506	32164	
305	0	32580	32437	
306	0	32660	32551	
307	0	32845	32649	
308	0	32969	32951	
309	0	33034	32944	
310	0	33050	33127	
311	0	33104	33347	
312	0	32944	33324	
313	0	32714	33171	
314	0	32688	33233	
315	0	32656	33191	
316	0	32672	32890	
317	0	32716	32855	
318	0	32596	32891	
319	0	32632	32768	
320	0	32608	32871	
321	0	32586	32728	
322	0	32326	32095	
323	0	32340	31707	
324	0	32476	31493	
325	0	32635	32197	
326	0	32822	32630	
327	0	32912	32760	
328	0	33068	32963	
329	0	33098	33088	
330	0	33160	33078	
331	0	33110	33172	
332	0	32945	32983	
333	0	32792	32914	
334	0	32732	33183	
335	0	32704	33065	
336	0	32700	32615	
337	0	32684	32571	
338	0	32609	32606	
339	0	32654	32770	
340	0	32640	32819	
341	0	32580	32615	
342	0	32418	32225	
343	0	32410	32071	
344	0	32534	32469	
345	0	32576	32662	
346	0	32752	32519	
347	0	32884	32541	
348	0	33002	33159	
349	0	33092	33287	
350	0	33140	33373	
351	0	33028	33269	
352	0	32872	33269	
353	0	32736	33178	
354	0	32706	32864	
355	0	32682	32642	
356	0	32666	32457	
357	0	32541	32476	
358	0	32566	32330	
359	0	32545	32317	
360	0	32673	32741	
361	0	32680	33108	
362	0	32500	32810	
363	0	32472	32571	
364	0	32614	32353	
365	0	32708	32087	
366	0	32842	31991	
367	0	32896	32293	
368	0	33002	32673	
369	0	33060	33043	
370	0	33008	33287	
371	0	33020	33277	
372	0	32870	33031	
373	0	32756	33026	
374	0	32712	33174	
375	0	32664	32901	
376	0	32632	32736	
377	0	32612	32701	
378	0	32530	32157	
379	0	32576	32174	
380	0	32676	32610	
381	0	32644	32710	
382	0	32492	32289	
383	0	32469	32038	
384	0	32562	32191	
385	0	32642	31985	
386	0	32848	32295	
387	0	32880	32895	
388	0	32986	33067	
389	0	33072	33539	
390	0	33091	33720	
391	0	33043	33636	
392	0	32801	33459	
393	0	32764	33253	
394	0	32716	33082	
395	0	32662	32775	
396	0	32706	32979	
397	0	32708	32928	
398	0	32728	32710	
399	0	32652	32464	
400	0	32666	32467	
401	0	32594	31918	
402	0	32400	31554	
403	0	32460	31837	
404	0	32544	32007	
405	0	32666	32064	
406	0	32829	32407	
407	0	32916	32687	
408	0	33040	33223	
409	0	33044	33390	
410	0	33082	33522	
411	0	33050	33431	
412	0	32836	33382	
413	0	32706	33400	
414	0	32683	32983	
415	0	32712	32884	
416	0	32740	33060	
417	0	32680	32819	
418	0	32646	32550	
419	0	32586	32577	
420	0	32640	32562	
421	0	32634	32434	
422	0	32444	32263	
423	0	32480	32144	
424	0	32560	32198	
425	0	32644	31946	
426	0	32796	32080	
427	0	32916	32775	
428	0	33033	32950	
429	0	33126	32839	
430	0	33184	32943	
431	0	33061	32599	
432	0	32847	32581	
433	0	32734	33316	
434	0	32633	33839	
435	0	32658	33501	
436	0	32618	33131	
437	0	32568	33007	
438	0	32532	32650	
439	0	32578	32399	
440	0	32624	32468	
441	0	32748	32755	
442	0	32545	32357	
443	0	32478	32016	
444	0	32592	31899	
445	0	32662	31559	
446	0	32744	31847	
447	0	32876	32330	
448	0	33092	33115	
449	0	33064	33327	
450	0	33088	34050	
451	0	33045	34432	
452	0	32865	34143	
453	0	32740	33507	
454	0	32696	32943	
455	0	32692	32146	
456	0	32714	31408	
457	0	32696	31894	
458	0	32673	32549	
459	0	32658	32547	
460	0	32596	32699	
461	0	32548	32775	
462	0	32372	32276	
463	0	32358	32111	
464	0	32508	32362	
465	0	32686	32498	
466	0	32846	32579	
467	0	32944	32869	
468	0	33060	33253	
469	0	33096	33240	
470	0	33028	33490	
471	0	33039	33766	
472	0	32756	33264	
473	0	32800	32951	
474	0	32720	33090	
475	0	32648	32882	
476	0	32640	32621	
477	0	32690	32550	
478	0	32686	32631	
479	0	32708	32471	
480	0	32708	32624	
481	0	32732	32494	
482	0	32453	31900	
483	0	32410	31901	
484	0	32576	31888	
485	0	32682	31837	
486	0	32786	32509	
487	0	32816	32707	
488	0	32933	32960	
489	0	33024	33437	
490	0	33028	33671	
491	0	32973	33676	
492	0	32914	33402	
493	0	32765	32973	
494	0	32756	33123	
495	0	32704	32973	
496	0	32736	32727	
497	0	32652	32634	
498	0	32686	32570	
499	0	32672	32632	
500	0	32646	32626	
501	0	32704	32495	
502	0	32368	32259	
503	0	32356	32263	
504	0	32500	31941	
505	0	32668	31932	
506	0	32850	32180	
507	0	32852	32805	
508	0	33034	33087	
509	0	33064	33287	
510	0	33150	33744	
511	0	33140	33750	
512	0	32857	33166	
513	0	32744	32868	
514	0	32689	32775	
515	0	32652	32396	
516	0	32682	32409	
517	0	32672	32535	
518	0	32603	32233	
519	0	32620	32549	
520	0	32612	32654	
521	0	32674	32415	
522	0	32448	31895	
523	0	32491	32026	
524	0	32538	32026	
525	0	32656	32432	
526	0	32780	32837	
527	0	32928	32946	
528	0	32992	32786	
529	0	33030	33287	
530	0	33044	33607	
531	0	32994	33665	
532	0	32816	33316	
533	0	32704	33247	
534	0	32756	32996	
535	0	32692	32819	
536	0	32722	32415	
537	0	32684	32495	
538	0	32656	32557	
539	0	32612	32405	
540	0	32660	32575	
541	0	32694	32686	
542	0	32452	32240	
543	0	32480	32012	
544	0	32545	32283	
545	0	32654	32243	
546	0	32734	32304	
547	0	32792	32870	
548	0	32948	33287	
549	0	33020	33410	
550	0	33065	33861	
551	0	33044	33830	
552	0	32882	33557	
553	0	32792	33059	
554	0	32700	32885	
555	0	32665	32673	
556	0	32708	32300	
557	0	32715	32092	
558	0	32665	32191	
559	0	32684	32421	
560	0	32628	32599	
561	0	32688	32414	
562	0	32420	32078	
563	0	32482	32135	
564	0	32610	32038	
565	0	32684	31882	
566	0	32782	31919	
567	0	32808	32489	
568	0	33004	33362	
569	0	33033	33667	
570	0	33080	33977	
571	0	33000	34211	
572	0	32812	33375	
573	0	32768	32604	
574	0	32800	32615	
575	0	32768	32743	
576	0	32700	32768	
577	0	32696	33069	
578	0	32616	32900	
579	0	32630	32916	
580	0	32692	32607	
581	0	32618	32203	
582	0	32434	31631	
583	0	32422	31769	
584	0	32428	32183	
585	0	32684	32287	
586	0	32770	32243	
587	0	32908	32775	
588	0	33118	33097	
589	0	33121	33204	
590	0	33088	33634	
591	0	33060	33520	
592	0	32784	33083	
593	0	32698	33322	
594	0	32717	33268	
595	0	32621	32903	
596	0	32704	32678	
597	0	32720	32627	
598	0	32684	32707	
599	0	32613	32370	
600	0	32562	32100	
601	0	32644	31828	
602	0	32505	31525	
603	0	32552	31524	
604	0	32518	32064	
605	0	32646	32259	
606	0	32772	32693	
607	0	32896	33192	
608	0	32972	33447	
609	0	33026	33522	
610	0	33044	33429	
611	0	33028	33470	
612	0	32850	33419	
613	0	32768	32917	
614	0	32674	32892	
615	0	32660	33124	
616	0	32624	32932	
617	0	32706	32647	
618	0	32570	32520	
619	0	32640	32280	
620	0	32580	32106	
621	0	32608	32274	
622	0	32460	32278	
623	0	32472	32230	
624	0	32598	32278	
625	0	32658	32483	
626	0	32784	32511	
627	0	32828	32809	
628	0	33042	33446	
629	0	33152	33792	
630	0	33182	33543	
631	0	33044	33227	
632	0	32896	32864	
633	0	32746	32850	
634	0	32660	32686	
635	0	32634	32995	
636	0	32634	32784	
637	0	32628	32555	
638	0	32594	32922	
639	0	32650	32441	
640	0	32696	32323	
641	0	32586	32526	
642	0	32348	32018	
643	0	32448	32055	
644	0	32524	32182	
645	0	32616	32540	
646	0	32858	32712	
647	0	32890	32705	
648	0	32980	33075	
649	0	33124	33437	
650	0	33123	33387	
651	0	33085	33679	
652	0	32849	33168	
653	0	32740	32599	
654	0	32640	32514	
655	0	32612	32563	
656	0	32602	32390	
657	0	32649	32382	
658	0	32652	32468	
659	0	32692	32647	
660	0	32646	32509	
661	0	32642	32393	
662	0	32420	32175	
663	0	32488	32395	
664	0	32520	32493	
665	0	32584	32654	
666	0	32800	32878	
667	0	32892	33048	
668	0	33088	33149	
669	0	33096	33042	
670	0	33085	33714	
671	0	33061	34066	
672	0	32848	33774	
673	0	32754	33343	
674	0	32738	33030	
675	0	32708	32921	
676	0	32656	32908	
677	0	32645	32592	
678	0	32696	32038	
679	0	32624	31981	
680	0	32656	32191	
681	0	32616	32464	
682	0	32388	32023	
683	0	32404	31532	
684	0	32460	31295	
685	0	32660	31855	
686	0	32825	32524	
687	0	32864	32759	
688	0	32968	33390	
689	0	33041	33554	
690	0	33034	33862	
691	0	33060	33868	
692	0	32862	33339	
693	0	32796	33159	
694	0	32704	33031	
695	0	32794	33257	
696	0	32652	32857	
697	0	32640	32716	
698	0	32644	32768	
699	0	32640	32587	
700	0	32608	32278	
701	0	32608	32111	
702	0	32420	31615	
703	0	32532	31537	
704	0	32648	31885	
705	0	32769	32551	
706	0	32834	32914	
707	0	32852	33447	
708	0	32956	33746	
709	0	33068	33516	
710	0	33069	33548	
711	0	33022	33481	
712	0	32790	33053	
713	0	32669	33133	
714	0	32646	32929	
715	0	32654	32709	
716	0	32632	32775	
717	0	32682	32508	
718	0	32728	32611	
719	0	32676	32499	
720	0	32668	32594	
721	0	32666	32706	
722	0	32424	32591	
723	0	32477	32542	
724	0	32530	32452	
725	0	32696	32032	
726	0	32829	32374	
727	0	32898	32747	
728	0	33032	32741	
729	0	33028	32897	
730	0	33081	32873	
731	0	33004	32506	
732	0	32852	32329	
733	0	32754	32321	
734	0	32730	32866	
735	0	32706	32815	
736	0	32650	33079	
737	0	32681	33110	
738	0	32647	32919	
739	0	32635	32828	
740	0	32644	32947	
741	0	32666	32743	
742	0	32420	32109	
743	0	32460	32161	
744	0	32544	32129	
745	0	32666	32169	
746	0	32748	32756	
747	0	32792	33011	
748	0	33008	33419	
749	0	33084	33342	
750	0	33142	33237	
751	0	33076	33569	
752	0	32804	32995	
753	0	32716	33057	
754	0	32602	33018	
755	0	32568	32811	
756	0	32508	32895	
757	0	32588	32868	
758	0	32681	32631	
759	0	32681	32376	
760	0	32664	32327	
761	0	32604	32569	
762	0	32423	32035	
763	0	32516	31887	
764	0	32578	32263	
765	0	32721	32416	
766	0	32912	32567	
767	0	32976	32815	
768	0	33022	33372	
769	0	33136	33343	
770	0	33000	33130	
771	0	32972	33279	
772	0	32801	32868	
773	0	32792	32463	
774	0	32736	32760	
775	0	32720	33199	
776	0	32704	33023	
777	0	32714	32954	
778	0	32584	32530	
779	0	32644	32317	
780	0	32642	32382	
781	0	32706	32263	
782	0	32442	32087	
783	0	32468	32236	
784	0	32544	32682	
785	0	32658	32752	
786	0	32736	32647	
787	0	32836	32697	
788	0	32984	32759	
789	0	33056	32582	
790	0	33049	32876	
791	0	33040	33411	
792	0	32800	33249	
793	0	32808	32908	
794	0	32724	33077	
795	0	32750	33058	
796	0	32676	32907	
797	0	32608	32694	
798	0	32588	32580	
799	0	32620	32775	
800	0	32634	32751	
801	0	32627	32645	
802	0	32409	32304	
803	0	32428	32101	
804	0	32618	31972	
805	0	32722	32180	
806	0	32884	32534	
807	0	32914	33083	
808	0	33005	33210	
809	0	33064	33283	
810	0	33034	33508	
811	0	32972	33101	
812	0	32812	32504	
813	0	32750	32338	
814	0	32686	32442	
815	0	32616	32589	
816	0	32652	33082	
817	0	32660	33094	
818	0	32678	32978	
819	0	32664	32867	
820	0	32636	32975	
821	0	32610	32393	
822	0	32462	31801	
823	0	32428	31322	
824	0	32549	31740	
825	0	32676	32556	
826	0	32816	32942	
827	0	32956	32864	
828	0	33034	32872	
829	0	33066	33157	
830	0	33060	33301	
831	0	32996	33261	
832	0	32768	33055	
833	0	32750	33003	
834	0	32662	32872	
835	0	32635	32862	
836	0	32648	32931	
837	0	32704	32855	
838	0	32670	32910	
839	0	32616	32549	
840	0	32612	32359	
841	0	32578	32333	
842	0	32442	32211	
843	0	32424	32127	
844	0	32604	32123	
845	0	32706	32148	
846	0	32906	32434	
847	0	32932	32474	
848	0	33100	32805	
849	0	33060	33023	
850	0	33024	33449	
851	0	33040	33667	
852	0	32820	33143	
853	0	32800	32914	
854	0	32744	33127	
855	0	32696	33007	
856	0	32658	32795	
857	0	32632	32671	
858	0	32596	32682	
859	0	32624	32831	
860	0	32705	32751	
861	0	32644	32489	
862	0	32472	31928	
863	0	32500	31603	
864	0	32570	31800	
865	0	32712	32109	
866	0	32844	32482	
867	0	32870	32859	
868	0	33008	33324	
869	0	33061	33635	
870	0	32975	33519	
871	0	32938	33520	
872	0	32774	33331	
873	0	32768	33183	
874	0	32718	32714	
875	0	32650	32457	
876	0	32666	32391	
877	0	32663	32356	
878	0	32701	32457	
879	0	32656	32571	
880	0	32666	32551	
881	0	32624	32646	
882	0	32409	32112	
883	0	32484	31959	
884	0	32624	32080	
885	0	32746	32199	
886	0	32869	32620	
887	0	32960	32979	
888	0	33052	33304	
889	0	33066	33583	
890	0	33033	33631	
891	0	32904	33544	
892	0	32676	33519	
893	0	32628	32979	
894	0	32618	32524	
895	0	32676	32407	
896	0	32624	32304	
897	0	32600	32111	
898	0	32553	32165	
899	0	32680	32570	
900	0	32640	32899	
901	0	32646	32542	
902	0	32484	32141	
903	0	32438	32297	
904	0	32680	32328	
905	0	32778	32381	
906	0	32848	32712	
907	0	32937	32739	
908	0	33052	32678	
909	0	33052	32999	
910	0	33056	33367	
911	0	33000	33674	
912	0	32808	33430	
913	0	32740	33120	
914	0	32714	32723	
915	0	32718	32583	
916	0	32649	32632	
917	0	32608	32711	
918	0	32600	32561	
919	0	32660	32355	
920	0	32642	32490	
921	0	32592	32755	
922	0	32444	32594	
923	0	32448	32469	
924	0	32648	32297	
925	0	32737	32379	
926	0	32804	32553	
927	0	32933	32848	
928	0	33014	33131	
929	0	33036	33351	
930	0	33040	33678	
931	0	32980	33466	
932	0	32770	32669	
933	0	32688	32425	
934	0	32744	32263	
935	0	32736	32308	
936	0	32726	32555	
937	0	32610	32751	
938	0	32640	32541	
939	0	32669	32642	
940	0	32708	32563	
941	0	32617	32526	
942	0	32412	32324	
943	0	32522	31967	
944	0	32694	32457	
945	0	32736	32825	
946	0	32880	32793	
947	0	32900	33024	
948	0	33008	33321	
949	0	33102	33326	
950	0	33032	33641	
951	0	32944	33571	
952	0	32736	33183	
953	0	32636	32722	
954	0	32581	32495	
955	0	32616	32830	
956	0	32696	32716	
957	0	32674	32973	
958	0	32658	32732	
959	0	32682	32405	
960	0	32668	32660	
961	0	32608	32247	
962	0	32416	31599	
963	0	32450	31346	
964	0	32628	31687	
965	0	32748	32044	
966	0	32888	32917	
967	0	32982	33054	
968	0	33017	33599	
969	0	33044	33532	
970	0	33000	33997	
971	0	32958	33655	
972	0	32736	32802	
973	0	32700	32729	
974	0	32712	32551	
975	0	32704	32718	
976	0	32640	32511	
977	0	32682	32312	
978	0	32648	32150	
979	0	32671	32418	
980	0	32674	32801	
981	0	32566	32523	
982	0	32446	32428	
983	0	32506	32457	
984	0	32572	32214	
985	0	32710	32540	
986	0	32816	32760	
987	0	32960	32825	
988	0	33018	32993	
989	0	32996	33503	
990	0	32960	33287	
991	0	32936	33253	
992	0	32760	32954	
993	0	32731	32708	
994	0	32720	33048	
995	0	32660	33044	
996	0	32728	33132	
997	0	32701	33406	
998	0	32656	33132	
999	0	32672	32494	
1000	0	32634	32228	
1001	0	32574	32257	
1002	0	32480	32082	
1003	0	32408	31984	
1004	0	32548	31808	
1005	0	32666	32221	
1006	0	32788	32339	
1007	0	32862	32854	
1008	0	32972	32947	
1009	0	33054	33000	
1010	0	33084	33586	
1011	0	33018	33699	
1012	0	32784	33240	
1013	0	32810	32915	
1014	0	32680	32685	
1015	0	32744	32681	
1016	0	32702	32895	
1017	0	32608	32569	
1018	0	32648	32578	
1019	0	32700	32671	
1020	0	32697	32467	
1021	0	32578	32482	
1022	0	32402	32263	
1023	0	32456	32390	
1024	0	32620	32511	
1025	0	32712	32506	
1026	0	32829	32305	
1027	0	32955	32404	
1028	0	33076	32762	
1029	0	33010	33158	
1030	0	33052	32903	
1031	0	32960	33007	
1032	0	32722	33091	
1033	0	32706	32832	
1034	0	32706	32998	
1035	0	32678	33092	
1036	0	32654	32891	
1037	0	32660	33131	
1038	0	32638	33163	
1039	0	32668	33211	
1040	0	32664	33049	
1041	0	32612	32742	
1042	0	32421	31928	
1043	0	32496	31810	
1044	0	32594	32098	
1045	0	32616	32071	
1046	0	32820	32210	
1047	0	32932	32646	
1048	0	33064	32755	
1049	0	33116	32942	
1050	0	33092	32985	
1051	0	33000	33275	
1052	0	32736	33042	
1053	0	32648	32738	
1054	0	32652	33051	
1055	0	32600	32809	
1056	0	32585	33064	
1057	0	32617	32927	
1058	0	32674	32711	
1059	0	32652	32833	
1060	0	32732	32274	
1061	0	32644	32211	
1062	0	32456	31877	
1063	0	32524	31947	
1064	0	32612	32738	
1065	0	32672	33049	
1066	0	32775	33272	
1067	0	32899	33168	
1068	0	33002	33300	
1069	0	33080	33206	
1070	0	33088	33362	
1071	0	32976	33307	
1072	0	32744	33006	
1073	0	32716	32477	
1074	0	32664	32155	
1075	0	32648	32391	
1076	0	32713	32660	
1077	0	32672	32554	
1078	0	32682	32741	
1079	0	32629	32808	
1080	0	32686	32603	
1081	0	32666	32536	
1082	0	32488	31983	
1083	0	32520	32271	
1084	0	32606	32320	
1085	0	32754	32639	
1086	0	32857	32611	
1087	0	32852	32775	
1088	0	32944	33052	
1089	0	32988	33279	
1090	0	32932	33371	
1091	0	32881	33499	
1092	0	32787	32978	
1093	0	32726	32706	
1094	0	32708	33065	
1095	0	32696	32698	
1096	0	32683	32374	
1097	0	32658	32187	
1098	0	32682	32376	
1099	0	32660	32315	
1100	0	32692	32506	
1101	0	32661	32617	
1102	0	32529	32263	
1103	0	32545	32128	
1104	0	32616	32278	
1105	0	32684	32410	
1106	0	32786	32628	
1107	0	32888	32807	
1108	0	32952	33128	
1109	0	33016	33248	
1110	0	33040	33578	
1111	0	32932	33607	
1112	0	32733	33088	
1113	0	32800	32821	
1114	0	32728	32973	
1115	0	32642	33123	
1116	0	32636	32832	
1117	0	32662	32805	
1118	0	32692	32910	
1119	0	32676	32899	
1120	0	32632	32456	
1121	0	32500	32114	
1122	0	32356	31633	
1123	0	32541	31466	
1124	0	32704	31829	
1125	0	32726	32248	
1126	0	32900	32485	
1127	0	32958	32831	
1128	0	32998	33045	
1129	0	33064	32862	
1130	0	33065	33099	
1131	0	32968	32853	
1132	0	32737	32203	
1133	0	32720	31991	
1134	0	32672	32472	
1135	0	32698	33375	
1136	0	32680	34009	
1137	0	32663	34212	
1138	0	32604	33195	
1139	0	32622	32534	
1140	0	32646	32509	
1141	0	32632	31911	
1142	0	32404	31161	
1143	0	32492	31041	
1144	0	32579	31447	
1145	0	32760	32007	
1146	0	32837	32613	
1147	0	32952	32804	
1148	0	33052	32766	
1149	0	33042	33037	
1150	0	33061	33487	
1151	0	32898	34475	
1152	0	32736	34979	
1153	0	32744	34754	
1154	0	32670	34096	
1155	0	32704	34096	
1156	0	32646	33535	
1157	0	32652	31393	
1158	0	32659	30364	
1159	0	32676	30696	
1160	0	32672	32408	
1161	0	32618	32283	
1162	0	32438	32430	
1163	0	32412	34030	
1164	0	32592	34695	
1165	0	32724	31770	
1166	0	32840	30909	
1167	0	32878	32142	
1168	0	32946	33305	
1169	0	33009	33887	
1170	0	33068	33386	
1171	0	32947	33881	
1172	0	32793	35256	
1173	0	32704	33945	
1174	0	32708	32587	
1175	0	32699	32208	
1176	0	32608	31807	
1177	0	32658	31743	
1178	0	32676	31047	
1179	0	32700	31239	
1180	0	32714	31533	
1181	0	32632	31259	
1182	0	32470	31041	
1183	0	32592	31673	
1184	0	32592	32915	
1185	0	32744	33298	
1186	0	32897	33223	
1187	0	32901	33844	
1188	0	33096	33402	
1189	0	33072	32871	
1190	0	32960	34035	
1191	0	32880	34452	
1192	0	32668	33782	
1193	0	32640	34575	
1194	0	32642	33439	
1195	0	32688	32198	
1196	0	32736	32860	
1197	0	32688	33485	
1198	0	32672	33089	
1199	0	32740	31686	
1200	0	32680	30215	
1201	0	32584	30096	
1202	0	32324	30583	
1203	0	32392	30907	
1204	0	32458	31775	
1205	0	32545	32775	
1206	0	32758	33550	
1207	0	32870	33194	
1208	0	32952	33779	
1209	0	32984	34566	
1210	0	32944	35334	
1211	0	32868	34585	
1212	0	32775	33439	
1213	0	32832	32859	
1214	0	32834	33455	
1215	0	32760	32942	
1216	0	32688	32193	
1217	0	32608	31987	
1218	0	32682	31460	
1219	0	32708	30635	
1220	0	32737	31258	
1221	0	32768	31504	
1222	0	32648	31428	
1223	0	32696	32167	
1224	0	32738	33512	
1225	0	32840	33257	
1226	0	32948	32595	
1227	0	32948	32594	
1228	0	32968	33238	
1229	0	32966	34324	
1230	0	32890	33897	
1231	0	32656	33255	
1232	0	32664	33154	
1233	0	32632	32879	
1234	0	32720	32830	
1235	0	33048	32922	
1236	0	33160	32597	
1237	0	32964	32321	
1238	0	32736	32899	
1239	0	32606	33888	
1240	0	32572	33978	
1241	0	32432	33186	
1242	0	32212	31763	
1243	0	32352	30987	
1244	0	32456	30831	
1245	0	32420	30727	
1246	0	32614	31258	
1247	0	32834	32079	
1248	0	33049	32871	
1249	0	33140	33180	
1250	0	33112	32621	
1251	0	33092	32643	
1252	0	32892	32687	
1253	0	32832	34082	
1254	0	32644	34597	
1255	0	32596	33994	
1256	0	32528	33548	
1257	0	32732	32862	
1258	0	33144	32506	
1259	0	33243	32263	
1260	0	33240	32647	
1261	0	32830	32910	
1262	0	32408	33692	
1263	0	32376	33519	
1264	0	32258	33327	
1265	0	32152	31867	
1266	0	32227	31299	
1267	0	32592	31719	
1268	0	32977	32196	
1269	0	33333	32048	
1270	0	33648	32422	
1271	0	33832	32903	
1272	0	33610	33008	
1273	0	33250	33824	
1274	0	32808	34345	
1275	0	32276	34015	
1276	0	31912	32897	
1277	0	31708	32759	
1278	0	31700	32306	
1279	0	31864	31450	
1280	0	32712	30437	
1281	0	33720	30072	
1282	0	33474	29774	
1283	0	33024	30710	
1284	0	32464	31824	
1285	0	32016	32114	
1286	0	32086	34306	
1287	0	32188	36214	
1288	0	32258	36071	
1289	0	32500	36183	
1290	0	32680	35718	
1291	0	32716	32888	
1292	0	32812	31108	
1293	0	32972	30580	
1294	0	32836	31033	
1295	0	32828	31487	
1296	0	32812	32301	
1297	0	32837	32857	
1298	0	33050	33110	
1299	0	32978	32820	
1300	0	32810	32236	
1301	0	32864	32477	
1302	0	32564	33660	
1303	0	32412	34221	
1304	0	32706	33853	
1305	0	33906	33029	
1306	0	33834	32535	
1307	0	33156	32772	
1308	0	32470	33301	
1309	0	32274	33036	
1310	0	32220	33218	
1311	0	32084	33106	
1312	0	32113	33057	
1313	0	32225	33395	
1314	0	32472	33279	
1315	0	32626	32208	
1316	0	33221	31814	
1317	0	33924	31683	
1318	0	33906	31463	
1319	0	33924	31875	
1320	0	33444	31736	
1321	0	32682	31252	
1322	0	31958	32087	
1323	0	31730	32365	
1324	0	31684	32610	
1325	0	31673	32750	
1326	0	31596	32089	
1327	0	31720	32306	
1328	0	32022	33366	
1329	0	32522	33363	
1330	0	33132	33282	
1331	0	33356	33622	
1332	0	33392	33271	
1333	0	33541	33784	
1334	0	33460	33951	
1335	0	33344	33519	
1336	0	33182	32563	
1337	0	32976	31973	
1338	0	32694	32234	
1339	0	32490	32569	
1340	0	32358	32281	
1341	0	32592	31481	
1342	0	33482	31428	
1343	0	33921	32086	
1344	0	33644	32194	
1345	0	33156	32229	
1346	0	32720	32472	
1347	0	32368	33147	
1348	0	32124	33571	
1349	0	31904	33481	
1350	0	31744	33986	
1351	0	31713	33711	
1352	0	31773	32832	
1353	0	32386	32335	
1354	0	32797	32555	
1355	0	33100	32867	
1356	0	33100	33682	
1357	0	32884	34051	
1358	0	32658	33554	
1359	0	32518	33195	
1360	0	32436	32893	
1361	0	32352	32355	
1362	0	32239	31835	
1363	0	32379	32361	
1364	0	32633	33075	
1365	0	32992	32943	
1366	0	33166	32303	
1367	0	33178	32333	
1368	0	33324	32290	
1369	0	33382	32077	
1370	0	33312	32246	
1371	0	33376	32774	
1372	0	33188	32289	
1373	0	33058	32096	
1374	0	32880	31812	
1375	0	32793	31159	
1376	0	33616	32042	
1377	0	34178	33118	
1378	0	33626	32321	
1379	0	32820	32934	
1380	0	32006	34210	
1381	0	31536	33731	
1382	0	31364	33847	
1383	0	31488	34095	
1384	0	31643	33122	
1385	0	32552	32193	
1386	0	33449	32057	
1387	0	33420	32795	
1388	0	33204	33287	
1389	0	32864	33360	
1390	0	32812	32976	
1391	0	32740	32079	
1392	0	32612	33151	
1393	0	32592	32763	
1394	0	32512	32041	
1395	0	32610	32723	
1396	0	32549	33261	
1397	0	32548	32558	
1398	0	32732	32848	
1399	0	33350	32998	
1400	0	33512	33068	
1401	0	33236	33030	
1402	0	32834	32843	
1403	0	33352	32570	
1404	0	33916	32263	
1405	0	34692	32285	
1406	0	33992	32383	
1407	0	33064	32288	
1408	0	32775	32000	
1409	0	32633	32142	
1410	0	31816	33307	
1411	0	30922	33235	
1412	0	30400	33082	
1413	0	30256	33103	
1414	0	30512	33026	
1415	0	30960	32857	
1416	0	31480	33245	
1417	0	31864	33286	
1418	0	32472	33066	
1419	0	33392	32935	
1420	0	34108	32925	
1421	0	34456	33534	
1422	0	34485	32984	
1423	0	34194	32287	
1424	0	33792	31906	
1425	0	33584	31805	
1426	0	33416	31239	
1427	0	32834	30546	
1428	0	32240	31396	
1429	0	31897	33170	
1430	0	31652	34055	
1431	0	31656	33638	
1432	0	32044	33223	
1433	0	32112	33827	
1434	0	31858	33459	
1435	0	31738	33316	
1436	0	31809	32604	
1437	0	32154	32209	
1438	0	32700	32381	
1439	0	32928	32420	
1440	0	33232	32613	
1441	0	33148	32590	
1442	0	32940	32679	
1443	0	32984	33186	
1444	0	33254	33704	
1445	0	33502	33311	
1446	0	33584	32464	
1447	0	33416	31819	
1448	0	33330	32213	
1449	0	33264	32231	
1450	0	33210	32566	
1451	0	33069	33218	
1452	0	33176	32805	
1453	0	34288	32298	
1454	0	34057	32618	
1455	0	33186	33472	
1456	0	32506	33083	
1457	0	32912	32998	
1458	0	32958	32847	
1459	0	32363	32198	
1460	0	31912	32547	
1461	0	31718	32550	
1462	0	31688	31660	
1463	0	31856	31774	
1464	0	32057	32275	
1465	0	32344	32419	
1466	0	32500	32944	
1467	0	32586	32815	
1468	0	32692	33500	
1469	0	32652	33563	
1470	0	32834	33564	
1471	0	32736	33436	
1472	0	32649	34363	
1473	0	32598	34723	
1474	0	32508	34159	
1475	0	32677	32775	
1476	0	32886	31486	
1477	0	32938	29722	
1478	0	32876	29602	
1479	0	32860	30461	
1480	0	32896	31849	
1481	0	32906	33248	
1482	0	32924	33749	
1483	0	32876	33444	
1484	0	32880	33057	
1485	0	32902	32443	
1486	0	32900	32699	
1487	0	32950	32441	
1488	0	32992	32628	
1489	0	32969	33497	
1490	0	33017	33629	
1491	0	32912	34199	
1492	0	32874	34283	
1493	0	32948	33447	
1494	0	32978	33451	
1495	0	32918	33559	
1496	0	32892	33519	
1497	0	32904	33132	
1498	0	32800	31924	
1499	0	32680	31318	
1500	0	32572	31218	
1501	0	32870	31067	
1502	0	32728	30726	
1503	0	32334	31239	
1504	0	32212	32223	
1505	0	32194	32654	
1506	0	32400	32854	
1507	0	32692	33597	
1508	0	32699	33892	
1509	0	32788	33696	
1510	0	33024	33634	
1511	0	32976	33410	
1512	0	32957	33316	
1513	0	32928	32843	
1514	0	32716	32727	
1515	0	32554	32767	
1516	0	32482	32771	
1517	0	32456	33314	
1518	0	32389	33151	
1519	0	32569	32414	
1520	0	32900	32306	
1521	0	33136	31584	
1522	0	33696	31264	
1523	0	34180	31871	
1524	0	34314	32059	
1525	0	34680	32425	
1526	0	34008	32487	
1527	0	33044	32636	
1528	0	32012	33388	
1529	0	31144	33957	
1530	0	30057	34544	
1531	0	29452	33706	
1532	0	29604	32690	
1533	0	30344	32353	
1534	0	31228	31991	
1535	0	32248	32036	
1536	0	33220	32051	
1537	0	33544	32263	
1538	0	33448	32834	
1539	0	33378	32498	
1540	0	33316	32479	
1541	0	33126	32775	
1542	0	33018	33141	
1543	0	33122	33192	
1544	0	33336	32761	
1545	0	33677	32949	
1546	0	33840	33334	
1547	0	33700	33575	
1548	0	33476	33459	
1549	0	33524	33247	
1550	0	34144	32924	
1551	0	34072	32455	
1552	0	33560	32214	
1553	0	33292	32772	
1554	0	32820	32744	
1555	0	32242	32817	
1556	0	31964	32999	
1557	0	31756	33159	
1558	0	32263	33231	
1559	0	32428	32383	
1560	0	32112	32203	
1561	0	31801	32258	
1562	0	31604	31425	
1563	0	31748	32088	
1564	0	31812	32731	
1565	0	31828	32862	
1566	0	32004	33147	
1567	0	32344	33064	
1568	0	32744	32223	
1569	0	32986	32050	
1570	0	33260	31732	
1571	0	33260	32379	
1572	0	33060	33099	
1573	0	33028	33101	
1574	0	33092	33195	
1575	0	33234	33527	
1576	0	33152	33202	
1577	0	32974	32604	
1578	0	32857	32480	
1579	0	32994	32354	
1580	0	32952	32162	
1581	0	32892	32581	
1582	0	32939	32063	
1583	0	33016	32075	
1584	0	33000	32327	
1585	0	33720	32602	
1586	0	34340	32404	
1587	0	33872	32491	
1588	0	33170	33051	
1589	0	32568	33308	
1590	0	32036	33643	
1591	0	31751	33682	
1592	0	31624	33735	
1593	0	31620	33863	
1594	0	32016	33087	
1595	0	32378	32784	
1596	0	32468	32391	
1597	0	32520	32130	
1598	0	32626	32666	
1599	0	32590	33345	
1600	0	32684	33171	
1601	0	32728	32741	
1602	0	32726	31623	
1603	0	32752	31528	
1604	0	32956	31821	
1605	0	32792	31842	
1606	0	32630	31776	
1607	0	32560	31724	
1608	0	32572	32408	
1609	0	32746	34128	
1610	0	32916	34986	
1611	0	33110	35271	
1612	0	33224	33779	
1613	0	33166	32530	
1614	0	33112	32140	
1615	0	32992	32439	
1616	0	32872	32123	
1617	0	32866	32651	
1618	0	32988	33031	
1619	0	32948	32876	
1620	0	32766	32640	
1621	0	32584	32283	
1622	0	32500	31781	
1623	0	32476	31088	
1624	0	33266	31398	
1625	0	34148	30693	
1626	0	34002	30418	
1627	0	33424	31763	
1628	0	32740	33180	
1629	0	32128	34078	
1630	0	31888	35190	
1631	0	31801	35528	
1632	0	31738	34867	
1633	0	31502	33955	
1634	0	31504	33304	
1635	0	31778	32819	
1636	0	32164	32511	
1637	0	32448	32404	
1638	0	32706	32519	
1639	0	32608	32314	
1640	0	32606	32675	
1641	0	32962	32475	
1642	0	33853	32279	
1643	0	34634	32135	
1644	0	34668	32083	
1645	0	34274	32132	
1646	0	33712	32288	
1647	0	33000	32622	
1648	0	32320	32679	
1649	0	31544	32958	
1650	0	31156	33042	
1651	0	31150	33146	
1652	0	31421	32981	
1653	0	31736	32817	
1654	0	32266	33050	
1655	0	32448	33366	
1656	0	32556	33097	
1657	0	32811	32736	
1658	0	33024	32632	
1659	0	33056	32449	
1660	0	32864	32057	
1661	0	32694	32300	
1662	0	32804	32263	
1663	0	32972	32327	
1664	0	33000	32466	
1665	0	33080	32569	
1666	0	33000	32300	
1667	0	32976	32365	
1668	0	32992	32711	
1669	0	33004	33168	
1670	0	33028	33878	
1671	0	33077	33711	
1672	0	32992	33419	
1673	0	32870	33253	
1674	0	33273	32701	
1675	0	33452	32519	
1676	0	33488	32361	
1677	0	33332	32836	
1678	0	33258	32786	
1679	0	33062	32175	
1680	0	32648	32314	
1681	0	32256	32342	
1682	0	31914	32263	
1683	0	31784	32831	
1684	0	31804	33155	
1685	0	32090	32864	
1686	0	32792	32468	
1687	0	33106	32637	
1688	0	32939	33600	
1689	0	32836	33372	
1690	0	32724	32464	
1691	0	32540	30684	
1692	0	32472	30664	
1693	0	32416	32135	
1694	0	32440	33164	
1695	0	32517	32932	
1696	0	32560	32887	
1697	0	32664	33834	
1698	0	32754	34295	
1699	0	32896	33927	
1700	0	32948	34359	
1701	0	32868	33359	
1702	0	32872	32430	
1703	0	32914	32810	
1704	0	32922	32841	
1705	0	32982	32578	
1706	0	33021	32043	
1707	0	33045	32397	
1708	0	33052	32699	
1709	0	32878	32318	
1710	0	32756	32163	
1711	0	32748	32037	
1712	0	32775	32125	
1713	0	32785	32345	
1714	0	32868	32324	
1715	0	32808	32212	
1716	0	33020	32351	
1717	0	33135	32574	
1718	0	33688	32461	
1719	0	33612	32377	
1720	0	33234	33012	
1721	0	32724	33555	
1722	0	32208	33896	
1723	0	31862	33682	
1724	0	31996	33001	
1725	0	31960	32722	
1726	0	31936	32748	
1727	0	32314	33059	
1728	0	32564	33159	
1729	0	32560	32659	
1730	0	32636	32760	
1731	0	32452	32675	
1732	0	32698	32806	
1733	0	32983	33222	
1734	0	32964	33119	
1735	0	32972	32770	
1736	0	32992	32323	
1737	0	32762	31946	
1738	0	32552	31922	
1739	0	32613	31719	
1740	0	32480	31871	
1741	0	32464	32327	
1742	0	32474	32944	
1743	0	32334	33344	
1744	0	32361	33393	
1745	0	32514	33166	
1746	0	32740	32954	
1747	0	33301	32838	
1748	0	33650	32973	
1749	0	33664	32989	
1750	0	33322	32771	
1751	0	33080	32752	
1752	0	32901	32833	
1753	0	32720	32571	
1754	0	32644	32538	
1755	0	32626	32502	
1756	0	32578	32363	
1757	0	32466	32567	
1758	0	32380	32878	
1759	0	32136	32819	
1760	0	32016	32456	
1761	0	31981	32235	
1762	0	32165	32258	
1763	0	32506	32775	
1764	0	32848	33166	
1765	0	32816	32837	
1766	0	32804	32959	
1767	0	32775	33068	
1768	0	32808	32867	
1769	0	32824	32859	
1770	0	32848	32875	
1771	0	33060	32553	
1772	0	33308	32437	
1773	0	33251	32741	
1774	0	33210	32978	
1775	0	33216	33039	
1776	0	33028	33142	
1777	0	32952	33031	
1778	0	32876	32391	
1779	0	32760	32234	
1780	0	32712	32088	
1781	0	32630	32085	
1782	0	32673	32733	
1783	0	32744	33108	
1784	0	32802	33135	
1785	0	32704	32855	
1786	0	32640	32630	
1787	0	32664	32157	
1788	0	32752	31995	
1789	0	32912	32090	
1790	0	33014	32635	
1791	0	32918	32932	
1792	0	32660	33211	
1793	0	32477	33771	
1794	0	32288	33932	
1795	0	32208	33362	
1796	0	32546	33125	
1797	0	32736	33031	
1798	0	32924	33237	
1799	0	33216	33077	
1800	0	33340	32687	
1801	0	33368	32647	
1802	0	33384	31925	
1803	0	33334	31128	
1804	0	33098	30888	
1805	0	32778	31786	
1806	0	32520	32647	
1807	0	32186	32839	
1808	0	31917	32799	
1809	0	31977	33511	
1810	0	32156	34370	
1811	0	31936	33283	
1812	0	31732	32694	
1813	0	31876	32639	
1814	0	32096	32325	
1815	0	32296	31654	
1816	0	32458	31745	
1817	0	32688	33174	
1818	0	33145	33911	
1819	0	33304	34262	
1820	0	33352	33769	
1821	0	33228	32826	
1822	0	33276	32567	
1823	0	33160	32790	
1824	0	33014	32300	
1825	0	32921	32119	
1826	0	32926	32174	
1827	0	32852	32260	
1828	0	32696	32603	
1829	0	32660	33336	
1830	0	32596	32875	
1831	0	32570	32026	
1832	0	32766	32282	
1833	0	32892	32231	
1834	0	32910	32554	
1835	0	32901	33615	
1836	0	32858	33823	
1837	0	32801	33328	
1838	0	32841	32543	
1839	0	32782	31836	
1840	0	32790	32014	
1841	0	32697	33360	
1842	0	32698	34448	
1843	0	32721	33727	
1844	0	32668	32713	
1845	0	32648	31758	
1846	0	32712	31186	
1847	0	33050	31145	
1848	0	33108	31002	
1849	0	33168	30746	
1850	0	33776	31896	
1851	0	33914	33468	
1852	0	33568	34852	
1853	0	33040	35079	
1854	0	32940	34343	
1855	0	32749	33001	
1856	0	32272	32434	
1857	0	31800	32298	
1858	0	31674	32741	
1859	0	31696	32530	
1860	0	31564	32284	
1861	0	31556	31442	
1862	0	31888	31833	
1863	0	32448	33060	
1864	0	32754	33396	
1865	0	33080	33631	
1866	0	33238	33434	
1867	0	33294	32858	
1868	0	33200	32447	
1869	0	33152	32877	
1870	0	32801	33203	
1871	0	32526	33287	
1872	0	32160	33248	
1873	0	31904	33065	
1874	0	31900	32735	
1875	0	32010	32663	
1876	0	32276	32724	
1877	0	32673	32800	
1878	0	33030	32537	
1879	0	32952	32797	
1880	0	32924	32855	
1881	0	32962	32600	
1882	0	32996	32281	
1883	0	32996	32234	
1884	0	32964	32263	
1885	0	33080	32375	
1886	0	33160	32133	
1887	0	33072	32038	
1888	0	33024	32293	
1889	0	33064	32877	
1890	0	33060	33256	
1891	0	32988	33068	
1892	0	32964	32919	
1893	0	32908	32944	
1894	0	32882	33094	
1895	0	32800	32839	
1896	0	32820	32795	
1897	0	32976	32672	
1898	0	32928	33022	
1899	0	32674	32888	
1900	0	32604	32530	
1901	0	32704	32574	
1902	0	32686	32470	
1903	0	32708	32365	
1904	0	32746	32487	
1905	0	32866	32223	
1906	0	32728	32146	
1907	0	32642	32153	
1908	0	32596	32167	
1909	0	32440	33144	
1910	0	32526	33795	
1911	0	32498	33799	
1912	0	32408	34006	
1913	0	32526	33799	
1914	0	32642	33038	
1915	0	32880	31924	
1916	0	33089	31735	
1917	0	33298	31488	
1918	0	33163	32000	
1919	0	32756	33232	
1920	0	32392	33316	
1921	0	32256	33067	
1922	0	32080	32971	
1923	0	32052	32867	
1924	0	32226	33442	
1925	0	32594	33335	
1926	0	32984	32654	
1927	0	33418	31719	
1928	0	33817	31520	
1929	0	33672	31332	
1930	0	33336	31600	
1931	0	33076	32895	
1932	0	32642	34322	
1933	0	32288	34089	
1934	0	32208	34055	
1935	0	32168	33121	
1936	0	32379	32714	
1937	0	32580	32517	
1938	0	32610	32498	
1939	0	32754	31450	
1940	0	32778	31435	
1941	0	32602	31583	
1942	0	32486	32502	
1943	0	32416	33264	
1944	0	32483	33432	
1945	0	32626	33818	
1946	0	33264	33569	
1947	0	33596	32775	
1948	0	33728	32083	
1949	0	33602	32348	
1950	0	33162	33284	
1951	0	32663	33327	
1952	0	32262	32882	
1953	0	31978	32519	
1954	0	31812	32160	
1955	0	31805	31899	
1956	0	31974	32194	
1957	0	32274	32075	
1958	0	32706	32573	
1959	0	32971	32775	
1960	0	33022	32857	
1961	0	33200	33202	
1962	0	33536	32855	
1963	0	33505	32889	
1964	0	33482	33115	
1965	0	33271	32729	
1966	0	32940	33055	
1967	0	32774	33111	
1968	0	32683	32892	
1969	0	32906	33051	
1970	0	33428	33104	
1971	0	33718	33442	
1972	0	33392	32656	
1973	0	32988	32422	
1974	0	32744	32055	
1975	0	32108	32039	
1976	0	31285	32472	
1977	0	31010	32528	
1978	0	30904	33079	
1979	0	31338	33494	
1980	0	31772	33249	
1981	0	32056	32796	
1982	0	32212	32357	
1983	0	32432	32528	
1984	0	32650	32431	
1985	0	32836	32731	
1986	0	32976	32900	
1987	0	33216	33194	
1988	0	33296	32870	
1989	0	33264	32466	
1990	0	33266	32793	
1991	0	33208	32723	
1992	0	33058	33386	
1993	0	32906	33181	
1994	0	32908	32727	
1995	0	33028	32552	
1996	0	32936	32454	
1997	0	32972	32543	
1998	0	33129	33108	
1999	0	33202	32484	
2000	0	33232	32279	
2001	0	33124	32553	
2002	0	32888	32770	
2003	0	32696	32431	
2004	0	32762	32534	
2005	0	32720	33234	
2006	0	32809	32923	
2007	0	32738	33058	
2008	0	32800	32857	
2009	0	32919	32293	
2010	0	32954	31461	
2011	0	32808	31659	
2012	0	32690	31637	
2013	0	32517	31708	
2014	0	32229	32263	
2015	0	32030	32319	
2016	0	32188	33527	
2017	0	32418	33939	
2018	0	32509	33750	
2019	0	32768	33691	
2020	0	32930	33977	
2021	0	32830	33343	
2022	0	32838	32472	
2023	0	32754	32015	
2024	0	32656	32338	
2025	0	32646	32357	
2026	0	32775	32748	
2027	0	32880	32733	
2028	0	32937	32841	
2029	0	33070	33411	
2030	0	33026	33586	
2031	0	33018	33394	
2032	0	33090	33185	
2033	0	33180	33136	
2034	0	33084	33095	
2035	0	32980	31943	
2036	0	32992	31333	
2037	0	32906	31978	
2038	0	32698	31928	
2039	0	32468	31449	
2040	0	32164	31901	
2041	0	31826	32789	
2042	0	32072	33381	
2043	0	32541	32592	
2044	0	32820	32465	
2045	0	33372	33303	
2046	0	33208	33330	
2047	0	32864	32744	
2048	0	32633	33048	
2049	0	32308	33414	
2050	0	32032	33508	
2051	0	32024	33399	
2052	0	32368	32837	
2053	0	32456	32026	
2054	0	32600	31689	
2055	0	32713	32388	
2056	0	32864	32278	
2057	0	32994	32855	
2058	0	32972	32818	
2059	0	33064	32615	
2060	0	33276	32854	
2061	0	33232	32899	
2062	0	33053	32770	
2063	0	32808	33489	
2064	0	32494	34078	
2065	0	32440	33535	
2066	0	32734	32885	
2067	0	32962	32573	
2068	0	33134	31968	
2069	0	33344	32114	
2070	0	33194	32035	
2071	0	32968	32276	
2072	0	32732	32899	
2073	0	32546	33267	
2074	0	32728	33415	
2075	0	32720	33668	
2076	0	32678	33215	
2077	0	32541	33002	
2078	0	32452	32676	
2079	0	32384	32367	
2080	0	32516	32379	
2081	0	32792	32049	
2082	0	32722	31153	
2083	0	32572	30075	
2084	0	32762	31165	
2085	0	32954	32720	
2086	0	32962	34127	
2087	0	32800	33963	
2088	0	32425	33152	
2089	0	32255	32944	
2090	0	32180	32528	
2091	0	32164	32427	
2092	0	32260	33220	
2093	0	32200	33721	
2094	0	32296	34611	
2095	0	32560	34951	
2096	0	32672	34439	
2097	0	32760	33858	
2098	0	32784	33640	
2099	0	32933	32730	
2100	0	32928	31664	
2101	0	32860	30597	
2102	0	32933	30709	
2103	0	33136	31613	
2104	0	33350	31682	
2105	0	33532	31421	
2106	0	33864	31651	
2107	0	33940	33004	
2108	0	33907	33472	
2109	0	33616	32911	
2110	0	33412	32384	
2111	0	33089	31269	
2112	0	33312	31197	
2113	0	33028	31838	
2114	0	32585	32467	
2115	0	32108	33658	
2116	0	31736	33808	
2117	0	31461	33184	
2118	0	31134	33388	
2119	0	30780	33688	
2120	0	31632	34697	
2121	0	32240	34399	
2122	0	32466	33135	
2123	0	32794	32105	
2124	0	33276	32636	
2125	0	33294	33564	
2126	0	32924	33038	
2127	0	32560	33351	
2128	0	32186	33055	
2129	0	31865	32942	
2130	0	31976	32492	
2131	0	32260	31506	
2132	0	32704	31086	
2133	0	33018	30960	
2134	0	33032	31307	
2135	0	32980	32140	
2136	0	32946	32591	
2137	0	33040	32804	
2138	0	33384	33068	
2139	0	33329	33418	
2140	0	33110	33462	
2141	0	32916	32479	
2142	0	32804	32922	
2143	0	32706	33216	
2144	0	33022	33132	
2145	0	33448	33648	
2146	0	33572	33363	
2147	0	33456	33903	
2148	0	33208	33287	
2149	0	32968	31372	
2150	0	32706	30167	
2151	0	32394	31286	
2152	0	32248	31686	
2153	0	32432	33090	
2154	0	32642	33728	
2155	0	32840	33623	
2156	0	32744	33719	
2157	0	32512	32967	
2158	0	32436	32263	
2159	0	32488	32234	
2160	0	32649	31698	
2161	0	32740	31790	
2162	0	32804	31589	
2163	0	32552	32678	
2164	0	32292	33287	
2165	0	32386	33593	
2166	0	32494	33784	
2167	0	32411	34648	
2168	0	32418	33710	
2169	0	32486	33244	
2170	0	32696	33016	
2171	0	32730	32301	
2172	0	32918	32570	
2173	0	33012	32953	
2174	0	33034	32768	
2175	0	33452	33150	
2176	0	33792	32087	
2177	0	33662	31275	
2178	0	33584	31404	
2179	0	33414	32133	
2180	0	33188	33133	
2181	0	32774	33774	
2182	0	32424	33663	
2183	0	31920	33567	
2184	0	31452	34117	
2185	0	31180	33406	
2186	0	31153	32218	
2187	0	31460	31147	
2188	0	32008	31858	
2189	0	32486	32696	
2190	0	32988	33765	
2191	0	33278	33465	
2192	0	33364	33862	
2193	0	33666	33927	
2194	0	34030	32589	
2195	0	34456	31731	
2196	0	34737	31278	
2197	0	34784	30934	
2198	0	34728	29556	
2199	0	34228	29345	
2200	0	33304	30854	
2201	0	32212	32896	
2202	0	31377	34680	
2203	0	31036	34926	
2204	0	30501	35274	
2205	0	29940	34175	
2206	0	30204	32555	
2207	0	30762	32422	
2208	0	31360	32263	
2209	0	32404	32521	
2210	0	32985	32937	
2211	0	33074	32189	
2212	0	33203	32925	
2213	0	33372	33494	
2214	0	33226	32883	
2215	0	33151	32255	
2216	0	33006	32823	
2217	0	33124	32880	
2218	0	33224	33283	
2219	0	33225	32932	
2220	0	33065	32506	
2221	0	32756	32491	
2222	0	32394	32359	
2223	0	32472	32555	
2224	0	32878	32630	
2225	0	33132	32195	
2226	0	33200	32173	
2227	0	33234	33846	
2228	0	33320	35026	
2229	0	33358	35143	
2230	0	33024	32150	
2231	0	32682	31605	
2232	0	32436	31949	
2233	0	32416	32361	
2234	0	32242	32850	
2235	0	32504	31975	
2236	0	33176	30558	
2237	0	33810	30834	
2238	0	33912	33348	
2239	0	33610	35472	
2240	0	33052	35873	
2241	0	32570	35237	
2242	0	32165	34118	
2243	0	31602	30944	
2244	0	31120	31751	
2245	0	30872	32551	
2246	0	30939	34002	
2247	0	31581	33062	
2248	0	32420	32170	
2249	0	32844	31736	
2250	0	33180	30749	
2251	0	33468	30259	
2252	0	33641	30185	
2253	0	33675	30658	
2254	0	33565	31567	
2255	0	33660	32899	
2256	0	33581	32866	
2257	0	33400	32636	
2258	0	33192	32460	
2259	0	32972	33984	
2260	0	32692	34380	
2261	0	32452	34470	
2262	0	32274	34090	
2263	0	32328	34410	
2264	0	32454	34781	
2265	0	32424	33558	
2266	0	32292	30438	
2267	0	32614	29860	
2268	0	33320	31861	
2269	0	33680	32955	
2270	0	33992	33936	
2271	0	34180	34759	
2272	0	34108	34960	
2273	0	33956	32056	
2274	0	33478	29809	
2275	0	33177	29911	
2276	0	32866	29116	
2277	0	32522	30870	
2278	0	32200	32789	
2279	0	31968	35406	
2280	0	31750	36328	
2281	0	30739	36583	
2282	0	30048	34336	
2283	0	29728	31398	
2284	0	30099	30452	
2285	0	30885	31296	
2286	0	31845	32272	
2287	0	32480	33219	
2288	0	32643	34309	
2289	0	32897	33527	
2290	0	33259	32263	
2291	0	33444	32221	
2292	0	33560	32737	
2293	0	33860	32472	
2294	0	34325	32635	
2295	0	34294	32284	
2296	0	34020	31838	
2297	0	33574	31830	
2298	0	33181	32836	
2299	0	32856	34334	
2300	0	32660	34806	
2301	0	32916	35071	
2302	0	32775	34719	
2303	0	32650	33355	
2304	0	32660	31860	
2305	0	32740	30411	
2306	0	32970	31036	
2307	0	33504	31702	
2308	0	33928	31655	
2309	0	33964	31211	
2310	0	33890	31041	
2311	0	33530	32082	
2312	0	33020	32786	
2313	0	32272	33919	
2314	0	31568	34042	
2315	0	30944	34051	
2316	0	30580	33542	
2317	0	30568	32263	
2318	0	30800	32312	
2319	0	31170	32406	
2320	0	31624	32081	
2321	0	32382	32789	
2322	0	32966	33586	
2323	0	33680	33492	
2324	0	34128	32918	
2325	0	34241	31833	
2326	0	34108	31376	
2327	0	33852	32263	
2328	0	33552	32204	
2329	0	33287	33197	
2330	0	33112	33550	
2331	0	32714	32699	
2332	0	32260	32322	
2333	0	32156	32394	
2334	0	32208	32870	
2335	0	32155	33091	
2336	0	31970	32655	
2337	0	32324	31680	
2338	0	33154	32504	
2339	0	33650	33196	
2340	0	33864	32897	
2341	0	33841	33414	
2342	0	33536	34404	
2343	0	33110	34468	
2344	0	32672	33062	
2345	0	32258	32177	
2346	0	31994	31682	
2347	0	31884	30318	
2348	0	31696	30853	
2349	0	31820	33287	
2350	0	32184	34595	
2351	0	32440	33536	
2352	0	32796	33423	
2353	0	32976	33680	
2354	0	33040	33493	
2355	0	33172	33667	
2356	0	33308	33834	
2357	0	33524	34044	
2358	0	33764	33501	
2359	0	33872	30718	
2360	0	34074	29620	
2361	0	34040	30727	
2362	0	33736	31760	
2363	0	33124	32592	
2364	0	32344	33068	
2365	0	31356	33799	
2366	0	30744	33286	
2367	0	30664	32620	
2368	0	30768	31712	
2369	0	31292	31844	
2370	0	31624	32569	
2371	0	31504	33131	
2372	0	32242	34283	
2373	0	33192	35286	
2374	0	34160	34980	
2375	0	34192	33432	
2376	0	33738	32023	
2377	0	33069	31710	
2378	0	32506	31751	
2379	0	31984	31340	
2380	0	31810	30119	
2381	0	31963	31092	
2382	0	32036	32868	
2383	0	32340	33216	
2384	0	32730	32418	
2385	0	33364	31459	
2386	0	34064	33174	
2387	0	34444	33388	
2388	0	34524	33799	
2389	0	34136	34470	
2390	0	33541	34274	
2391	0	33035	32338	
2392	0	32624	31326	
2393	0	32205	32441	
2394	0	32156	32557	
2395	0	32208	32592	
2396	0	32228	32509	
2397	0	32482	32982	
2398	0	32410	33162	
2399	0	32106	32899	
2400	0	32204	32440	
2401	0	32460	32647	
2402	0	32816	32903	
2403	0	33220	32617	
2404	0	33979	32484	
2405	0	34410	32677	
2406	0	34636	33466	
2407	0	34311	33668	
2408	0	33754	33438	
2409	0	33034	32964	
2410	0	32308	32260	
2411	0	31606	32155	
2412	0	30740	32303	
2413	0	30128	31750	
2414	0	30412	31630	
2415	0	30912	32480	
2416	0	31746	32794	
2417	0	32516	32823	
2418	0	32989	32785	
2419	0	33420	32656	
2420	0	33630	32887	
2421	0	33464	33082	
2422	0	32938	33478	
2423	0	32916	33388	
2424	0	33052	32864	
2425	0	32816	32762	
2426	0	32650	33044	
2427	0	32898	33063	
2428	0	32857	33474	
2429	0	32908	33398	
2430	0	32656	32527	
2431	0	32386	32160	
2432	0	32088	32023	
2433	0	32144	32263	
2434	0	32642	32415	
2435	0	33002	32535	
2436	0	33158	33256	
2437	0	33396	34207	
2438	0	33844	33851	
2439	0	33704	32628	
2440	0	33236	31528	
2441	0	32752	30302	
2442	0	32224	30144	
2443	0	31833	30866	
2444	0	31852	32518	
2445	0	32058	34272	
2446	0	32434	34304	
2447	0	32746	33682	
2448	0	32930	33394	
2449	0	33158	32656	
2450	0	33014	32293	
2451	0	33018	32919	
2452	0	33212	33127	
2453	0	33308	32979	
2454	0	33198	32861	
2455	0	33010	32717	
2456	0	32929	33170	
2457	0	32810	32367	
2458	0	32660	31674	
2459	0	32400	32024	
2460	0	32072	32402	
2461	0	31888	33047	
2462	0	32200	33601	
2463	0	32442	33779	
2464	0	32802	33262	
2465	0	33150	32489	
2466	0	33172	31898	
2467	0	33236	30343	
2468	0	33092	30128	
2469	0	33034	31113	
2470	0	33060	32638	
2471	0	33019	34075	
2472	0	32848	34427	
2473	0	32729	34444	
2474	0	32544	33330	
2475	0	32400	32014	
2476	0	32450	32537	
2477	0	32678	33094	
2478	0	32952	33615	
2479	0	33117	34311	
2480	0	33287	34354	
2481	0	33324	33951	
2482	0	33304	33457	
2483	0	32916	33824	
2484	0	32530	32983	
2485	0	32314	31664	
2486	0	32136	30115	
2487	0	32114	30595	
2488	0	32345	31780	
2489	0	33232	31882	
2490	0	33314	32111	
2491	0	33076	33375	
2492	0	33028	33479	
2493	0	32712	33057	
2494	0	32180	32897	
2495	0	31688	32999	
2496	0	31602	32720	
2497	0	31964	32547	
2498	0	32496	32717	
2499	0	33000	33317	
2500	0	33294	33304	
2501	0	33497	32874	
2502	0	33500	32745	
2503	0	33008	32127	
2504	0	32671	32229	
2505	0	32408	32334	
2506	0	32246	32071	
2507	0	32374	32133	
2508	0	32680	33036	
2509	0	32196	33484	
2510	0	32332	33494	
2511	0	32690	33177	
2512	0	32792	32774	
2513	0	32786	32574	
2514	0	32896	32896	
2515	0	32700	33346	
2516	0	32549	33241	
2517	0	32736	32728	
2518	0	33422	32841	
2519	0	33952	33025	
2520	0	33730	31783	
2521	0	33161	31387	
2522	0	32410	32755	
2523	0	32160	33445	
2524	0	32294	33339	
2525	0	31873	33183	
2526	0	32090	32258	
2527	0	32840	32332	
2528	0	33369	33011	
2529	0	32941	33611	
2530	0	32316	33403	
2531	0	31896	32176	
2532	0	32100	31716	
2533	0	32212	31504	
2534	0	32800	31022	
2535	0	33240	31586	
2536	0	33220	32369	
2537	0	32894	32516	
2538	0	32920	32770	
2539	0	33322	33184	
2540	0	33908	33177	
2541	0	34448	33170	
2542	0	34596	32937	
2543	0	34051	33474	
2544	0	33380	33131	
2545	0	32476	31812	
2546	0	31600	31709	
2547	0	30688	32786	
2548	0	30080	34434	
2549	0	30561	35320	
2550	0	31188	34138	
2551	0	32164	33478	
2552	0	32968	32620	
2553	0	33216	31666	
2554	0	33250	30264	
2555	0	33280	30059	
2556	0	33042	31608	
2557	0	33036	32659	
2558	0	33192	32676	
2559	0	33306	32483	
2560	0	33228	33038	
2561	0	33084	33708	
2562	0	32988	33408	
2563	0	32916	32857	
2564	0	33016	33336	
2565	0	32739	33299	
2566	0	32640	32892	
2567	0	32728	33047	
2568	0	32883	32827	
2569	0	33026	32260	
2570	0	33158	32245	
2571	0	33132	32229	
2572	0	33268	32756	
2573	0	33604	32994	
2574	0	33394	32874	
2575	0	32778	33266	
2576	0	32242	33259	
2577	0	31881	33189	
2578	0	31804	33736	
2579	0	31816	33976	
2580	0	32520	33190	
2581	0	33010	32584	
2582	0	33364	31751	
2583	0	33497	30505	
2584	0	33120	31067	
2585	0	32736	32011	
2586	0	32392	32979	
2587	0	31940	32717	
2588	0	31897	32356	
2589	0	31945	32101	
2590	0	32283	32767	
2591	0	32620	33712	
2592	0	32942	33603	
2593	0	32712	33147	
2594	0	32474	32813	
2595	0	32402	32564	
2596	0	32244	32993	
2597	0	32192	33650	
2598	0	32621	34038	
2599	0	32928	32999	
2600	0	32752	32073	
2601	0	32692	32251	
2602	0	33032	31711	
2603	0	33188	32525	
2604	0	33098	32962	
2605	0	32994	32795	
2606	0	33152	31976	
2607	0	33172	32231	
2608	0	32926	33072	
2609	0	33116	33218	
2610	0	33298	33225	
2611	0	33208	33394	
2612	0	33004	32859	
2613	0	32834	33074	
2614	0	32808	33135	
2615	0	33058	32914	
2616	0	32820	32974	
2617	0	32812	32459	
2618	0	32866	32549	
2619	0	32844	33004	
2620	0	32580	33193	
2621	0	32573	33083	
2622	0	32636	32620	
2623	0	32458	32260	
2624	0	32422	31821	
2625	0	32374	31282	
2626	0	32268	31425	
2627	0	31941	32550	
2628	0	31954	33847	
2629	0	32238	34220	
2630	0	31680	34348	
2631	0	31694	33713	
2632	0	32328	32884	
2633	0	32892	32002	
2634	0	33112	31412	
2635	0	33115	32420	
2636	0	33082	32794	
2637	0	33178	33494	
2638	0	33182	33395	
2639	0	33024	32681	
2640	0	32797	32133	
2641	0	33042	31751	
2642	0	33568	31501	
2643	0	34156	31344	
2644	0	34628	31097	
2645	0	34640	31322	
2646	0	33981	32048	
2647	0	33074	33211	
2648	0	32375	33608	
2649	0	31960	32789	
2650	0	30852	32373	
2651	0	30516	32937	
2652	0	31040	33732	
2653	0	31364	34465	
2654	0	31710	34359	
2655	0	32345	34603	
2656	0	32844	32775	
2657	0	33220	31517	
2658	0	33306	32090	
2659	0	33202	32732	
2660	0	32949	33472	
2661	0	32712	33272	
2662	0	32992	32375	
2663	0	32996	32846	
2664	0	32708	33234	
2665	0	32600	33272	
2666	0	32596	32871	
2667	0	33065	31879	
2668	0	33336	31396	
2669	0	33400	31606	
2670	0	33372	31193	
2671	0	33360	32007	
2672	0	33344	33382	
2673	0	32784	33515	
2674	0	32112	33877	
2675	0	31954	34595	
2676	0	32224	34008	
2677	0	32377	33189	
2678	0	32080	32629	
2679	0	32142	32005	
2680	0	32464	31391	
2681	0	32912	31010	
2682	0	33200	31623	
2683	0	33346	31653	
2684	0	33304	33494	
2685	0	33040	33966	
2686	0	32882	33463	
2687	0	32562	33403	
2688	0	32210	32477	
2689	0	32272	32017	
2690	0	32552	31282	
2691	0	32792	31709	
2692	0	32957	32689	
2693	0	32920	33095	
2694	0	32936	33217	
2695	0	32964	33309	
2696	0	32972	33477	
2697	0	32912	33081	
2698	0	32832	33087	
2699	0	32808	32933	
2700	0	32832	32665	
2701	0	32520	33841	
2702	0	32480	33944	
2703	0	32832	33674	
2704	0	33144	32788	
2705	0	33236	31181	
2706	0	33240	29322	
2707	0	32980	28939	
2708	0	32498	31122	
2709	0	31939	33571	
2710	0	31768	34171	
2711	0	32045	33723	
2712	0	32456	34668	
2713	0	32740	35044	
2714	0	32984	34079	
2715	0	32952	32932	
2716	0	32940	32319	
2717	0	32992	32278	
2718	0	32897	32310	
2719	0	32714	32570	
2720	0	32552	32419	
2721	0	32536	32611	
2722	0	32440	32864	
2723	0	32505	32952	
2724	0	32733	32528	
2725	0	33026	32708	
2726	0	32770	32519	
2727	0	32731	32615	
2728	0	33053	32970	
2729	0	33108	33324	
2730	0	33128	33330	
2731	0	32980	32747	
2732	0	32836	33100	
2733	0	32624	33095	
2734	0	32440	30352	
2735	0	32288	29231	
2736	0	32536	30889	
2737	0	32896	32670	
2738	0	33092	33878	
2739	0	33008	33952	
2740	0	32960	33474	
2741	0	33080	33299	
2742	0	33154	31859	
2743	0	33030	31692	
2744	0	32844	32910	
2745	0	32556	33886	
2746	0	31972	34242	
2747	0	31403	34155	
2748	0	31600	33229	
2749	0	32026	32893	
2750	0	32469	32823	
2751	0	32742	32726	
2752	0	32869	32637	
2753	0	33034	32807	
2754	0	33096	33437	
2755	0	33148	33074	
2756	0	33176	32859	
2757	0	33012	32905	
2758	0	32822	32532	
2759	0	32879	31882	
2760	0	32994	32071	
2761	0	33045	31929	
2762	0	33044	32056	
2763	0	33018	32678	
2764	0	32998	32672	
2765	0	32888	32655	
2766	0	32900	33048	
2767	0	32816	32465	
2768	0	32526	32503	
2769	0	32091	32888	
2770	0	32272	33203	
2771	0	33216	33302	
2772	0	34260	33597	
2773	0	35168	33526	
2774	0	35468	33172	
2775	0	34728	32908	
2776	0	33414	33151	
2777	0	31952	32635	
2778	0	30722	32080	
2779	0	29880	32258	
2780	0	29130	31602	
2781	0	29360	32257	
2782	0	30444	32464	
2783	0	31532	32899	
2784	0	32498	33135	
2785	0	33280	32512	
2786	0	33536	31625	
2787	0	33500	31493	
2788	0	33592	31576	
2789	0	33508	31751	
2790	0	33486	32263	
2791	0	33436	33721	
2792	0	33260	34135	
2793	0	33046	34844	
2794	0	32688	34538	
2795	0	32770	33428	
2796	0	32872	32549	
2797	0	32944	32439	
2798	0	32786	32146	
2799	0	32400	31869	
2800	0	32374	31788	
2801	0	32535	32185	
2802	0	32530	32135	
2803	0	32592	32472	
2804	0	32688	32615	
2805	0	32564	33692	
2806	0	32715	34512	
2807	0	32954	34598	
2808	0	33052	33486	
2809	0	33152	32251	
2810	0	33092	32135	
2811	0	33032	31332	
2812	0	33062	30911	
2813	0	33124	31660	
2814	0	33152	32002	
2815	0	33236	32244	
2816	0	33220	32134	
2817	0	33180	32285	
2818	0	33140	32462	
2819	0	32968	32364	
2820	0	32893	32866	
2821	0	32756	33111	
2822	0	32549	33287	
2823	0	32289	33268	
2824	0	32214	33223	
2825	0	31950	33951	
2826	0	31737	34114	
2827	0	31768	33620	
2828	0	31970	34029	
2829	0	32476	33787	
2830	0	32884	32696	
2831	0	32968	32073	
2832	0	32964	32121	
2833	0	32832	31637	
2834	0	32836	31302	
2835	0	32904	32033	
2836	0	32957	32858	
2837	0	32992	33207	
2838	0	32992	32887	
2839	0	32952	32882	
2840	0	32928	32293	
2841	0	32836	29524	
2842	0	32824	29403	
2843	0	32740	31843	
2844	0	32813	34474	
2845	0	32860	35740	
2846	0	32941	36231	
2847	0	33055	35910	
2848	0	33074	34109	
2849	0	33178	32171	
2850	0	33044	31163	
2851	0	32943	31386	
2852	0	32737	32583	
2853	0	32714	33787	
2854	0	32777	33139	
2855	0	32596	32506	
2856	0	32744	32301	
2857	0	32784	32313	
2858	0	32672	32139	
2859	0	32592	32577	
2860	0	32313	33373	
2861	0	32000	33448	
2862	0	31752	33495	
2863	0	31880	32862	
2864	0	31844	32063	
2865	0	31880	31721	
2866	0	32144	31362	
2867	0	32654	31728	
2868	0	33124	32109	
2869	0	33492	32718	
2870	0	33530	33040	
2871	0	33372	33307	
2872	0	33422	33237	
2873	0	33832	33329	
2874	0	34117	32592	
2875	0	34129	32168	
2876	0	33720	32706	
2877	0	33020	32932	
2878	0	32332	32618	
2879	0	31648	32037	
2880	0	31006	31885	
2881	0	30825	32612	
2882	0	30804	33170	
2883	0	31113	33220	
2884	0	31954	33710	
2885	0	32564	34125	
2886	0	33189	33083	
2887	0	33928	32358	
2888	0	34416	32110	
2889	0	34522	31967	
2890	0	34272	32451	
2891	0	33705	32689	
2892	0	32932	32768	
2893	0	32096	32854	
2894	0	31524	32712	
2895	0	31393	32870	
2896	0	31552	32841	
2897	0	31672	32841	
2898	0	32144	32413	
2899	0	32672	32391	
2900	0	33090	32787	
2901	0	33206	32841	
2902	0	33248	32761	
2903	0	33218	32480	
2904	0	32992	32566	
2905	0	33008	32936	
2906	0	32992	32901	
2907	0	33060	33043	
2908	0	32988	33166	
2909	0	32876	33018	
2910	0	32832	33422	
2911	0	32870	33245	
2912	0	32897	33125	
2913	0	32844	32717	
2914	0	32808	32208	
2915	0	32724	31767	
2916	0	32728	31675	
2917	0	32621	32036	
2918	0	32546	32195	
2919	0	32587	33190	
2920	0	32588	33270	
2921	0	32456	33153	
2922	0	32594	32927	
2923	0	32842	32563	
2924	0	33028	32658	
2925	0	32980	33234	
2926	0	33018	33303	
2927	0	32992	33363	
2928	0	32882	33277	
2929	0	32880	32756	
2930	0	32788	32725	
2931	0	32618	32946	
2932	0	32524	32997	
2933	0	32480	32167	
2934	0	32560	31167	
2935	0	32780	31325	
2936	0	32775	32066	
2937	0	32688	33367	
2938	0	32536	33855	
2939	0	32602	33534	
2940	0	32700	33026	
2941	0	32684	32398	
2942	0	32744	31956	
2943	0	32770	32226	
2944	0	32772	31859	
2945	0	32762	31582	
2946	0	32762	31687	
2947	0	32667	32976	
2948	0	32712	34505	
2949	0	32720	34723	
2950	0	32775	34234	
2951	0	32874	33352	
2952	0	32900	32969	
2953	0	32848	32242	
2954	0	32801	31623	
2955	0	32848	31781	
2956	0	32808	33108	
2957	0	32818	33820	
2958	0	32812	33735	
2959	0	32748	32947	
2960	0	32741	32726	
2961	0	32754	32214	
2962	0	32824	31836	
2963	0	32744	32628	
2964	0	32576	32903	
2965	0	32468	32412	
2966	0	32436	32435	
2967	0	32408	32165	
2968	0	32397	32213	
2969	0	32608	32391	
2970	0	32620	32940	
2971	0	32714	32954	
2972	0	32778	33111	
2973	0	32824	33038	
2974	0	32966	32547	
2975	0	32896	32899	
2976	0	32862	33236	
2977	0	32747	33478	
2978	0	32712	33287	
2979	0	32768	32654	
2980	0	32792	32374	
2981	0	32836	32340	
2982	0	33012	31830	
2983	0	33268	31762	
2984	0	33552	32154	
2985	0	33728	32771	
2986	0	33506	32912	
2987	0	33081	32958	
2988	0	32610	33015	
2989	0	32210	33311	
2990	0	31970	32995	
2991	0	31908	33068	
2992	0	31944	33061	
2993	0	32044	32775	
2994	0	32308	32820	
2995	0	32560	32765	
2996	0	32544	32216	
2997	0	32580	31974	
2998	0	32576	32185	
2999	0	32792	32802	
3000	0	33436	32893	
3001	0	33940	32680	
3002	0	34080	32838	
3003	0	33836	32995	
3004	0	33190	32293	
3005	0	32477	31628	
3006	0	31691	32017	
3007	0	31026	32840	
3008	0	30976	33597	
3009	0	31118	33396	
3010	0	31506	32946	
3011	0	32048	32700	
3012	0	32800	33057	
3013	0	33516	32822	
3014	0	33896	32701	
3015	0	33716	32750	
3016	0	33440	32556	
3017	0	33104	32707	
3018	0	33070	32332	
3019	0	33013	31594	
3020	0	32922	32147	
3021	0	32852	32037	
3022	0	32770	32192	
3023	0	32669	32797	
3024	0	32460	32755	
3025	0	32668	32628	
3026	0	32821	32575	
3027	0	33000	32839	
3028	0	33108	32853	
3029	0	33100	33799	
3030	0	33068	33852	
3031	0	32982	33395	
3032	0	32878	33200	
3033	0	32763	32338	
3034	0	32701	31895	
3035	0	32506	32365	
3036	0	32460	32464	
3037	0	32412	33313	
3038	0	32432	34489	
3039	0	32588	34007	
3040	0	32704	32899	
3041	0	32840	32474	
3042	0	32946	32038	
3043	0	32882	31588	
3044	0	32869	31843	
3045	0	32825	32349	
3046	0	32794	32621	
3047	0	32656	32937	
3048	0	32596	32142	
3049	0	32544	32295	
3050	0	32602	32980	
3051	0	32556	32572	
3052	0	32636	33624	
3053	0	32740	33334	
3054	0	32696	32543	
3055	0	32713	32942	
3056	0	32796	33751	
3057	0	32866	34383	
3058	0	32752	33679	
3059	0	32828	32856	
3060	0	32824	32404	
3061	0	32822	32258	
3062	0	32768	31422	
3063	0	32712	30463	
3064	0	32765	31838	
3065	0	32774	33244	
3066	0	32728	33094	
3067	0	32746	32655	
3068	0	32816	33174	
3069	0	32921	33658	
3070	0	33090	33385	
3071	0	33046	33598	
3072	0	32928	33433	
3073	0	32964	32905	
3074	0	32876	32255	
3075	0	32665	31736	
3076	0	32500	32327	
3077	0	32464	32515	
3078	0	32384	32394	
3079	0	32352	32160	
3080	0	32252	32272	
3081	0	32400	32252	
3082	0	32536	32706	
3083	0	32564	32669	
3084	0	32758	32200	
3085	0	32821	32110	
3086	0	32782	32364	
3087	0	32796	32723	
3088	0	32886	33312	
3089	0	32996	33741	
3090	0	33076	34104	
3091	0	33302	33799	
3092	0	33712	33183	
3093	0	34016	32887	
3094	0	33880	32711	
3095	0	33414	32433	
3096	0	32848	32453	
3097	0	32418	32594	
3098	0	32084	32316	
3099	0	31854	32432	
3100	0	32000	32925	
3101	0	32836	32959	
3102	0	34370	32958	
3103	0	34722	32675	
3104	0	34328	32733	
3105	0	33428	32149	
3106	0	32264	32356	
3107	0	31038	32908	
3108	0	30024	32789	
3109	0	29536	32603	
3110	0	29512	32034	
3111	0	30232	32229	
3112	0	31136	32773	
3113	0	32395	32948	
3114	0	33249	33156	
3115	0	33804	33287	
3116	0	34192	33565	
3117	0	34292	33351	
3118	0	33976	32807	
3119	0	33458	32295	
3120	0	32824	32189	
3121	0	32452	32444	
3122	0	32150	32598	
3123	0	32308	32567	
3124	0	32515	32763	
3125	0	32720	32604	
3126	0	32993	32767	
3127	0	32976	32293	
3128	0	33106	32765	
3129	0	33337	33188	
3130	0	33446	33577	
3131	0	33242	33834	
3132	0	33006	33191	
3133	0	32864	32464	
3134	0	32704	32482	
3135	0	32676	32423	
3136	0	32765	32386	
3137	0	32882	32573	
3138	0	32952	32815	
3139	0	33101	32436	
3140	0	33112	32541	
3141	0	32944	32442	
3142	0	32879	32263	
3143	0	32840	32247	
3144	0	32628	32422	
3145	0	32481	32056	
3146	0	32484	31632	
3147	0	32510	31933	
3148	0	32510	32775	
3149	0	32542	32909	
3150	0	32512	33095	
3151	0	32564	33631	
3152	0	32584	33280	
3153	0	32530	33063	
3154	0	32596	32771	
3155	0	32471	33187	
3156	0	32545	33260	
3157	0	32492	32775	
3158	0	32592	31943	
3159	0	32652	31992	
3160	0	32744	32477	
3161	0	32782	33545	
3162	0	32768	32813	
3163	0	32788	31624	
3164	0	32884	31511	
3165	0	32934	32351	
3166	0	32908	33270	
3167	0	33018	34159	
3168	0	32964	33863	
3169	0	33017	34117	
3170	0	32969	33471	
3171	0	32848	32941	
3172	0	33040	32895	
3173	0	33700	32382	
3174	0	33620	32485	
3175	0	33256	32517	
3176	0	32840	32536	
3177	0	32640	32590	
3178	0	32276	32315	
3179	0	32028	32143	
3180	0	31976	32421	
3181	0	32284	32580	
3182	0	33204	32354	
3183	0	33384	32422	
3184	0	33208	32470	
3185	0	32988	33067	
3186	0	33644	33415	
3187	0	34070	33251	
3188	0	33476	33156	
3189	0	32646	33080	
3190	0	31981	32516	
3191	0	31521	32564	
3192	0	31129	33176	
3193	0	30724	32964	
3194	0	30744	32916	
3195	0	31160	32875	
3196	0	31926	32687	
3197	0	32816	32263	
3198	0	33220	31654	
3199	0	33696	31618	
3200	0	33888	31948	
3201	0	33728	32479	
3202	0	33580	32912	
3203	0	33852	33245	
3204	0	33416	33389	
3205	0	32715	33612	
3206	0	32141	33565	
3207	0	31762	32636	
3208	0	31608	31963	
3209	0	31640	32498	
3210	0	31906	32670	
3211	0	32077	32427	
3212	0	32348	32751	
3213	0	32736	32750	
3214	0	33174	32820	
3215	0	33552	33172	
3216	0	33616	33088	
3217	0	33728	32923	
3218	0	33786	32932	
3219	0	33712	32522	
3220	0	33528	32343	
3221	0	33172	32434	
3222	0	32688	32541	
3223	0	32421	32387	
3224	0	32348	32470	
3225	0	32263	32749	
3226	0	32200	32684	
3227	0	32134	32500	
3228	0	32325	32669	
3229	0	32814	32878	
3230	0	33614	32735	
3231	0	33488	32827	
3232	0	33560	33059	
3233	0	33172	33017	
3234	0	32736	33127	
3235	0	32356	33146	
3236	0	32051	32797	
3237	0	31976	32508	
3238	0	31964	32775	
3239	0	31904	32728	
3240	0	32048	32793	
3241	0	32300	33000	
3242	0	32508	32728	
3243	0	32664	32486	
3244	0	32899	32349	
3245	0	33854	32566	
3246	0	33776	32726	
3247	0	33378	32741	
3248	0	32960	32866	
3249	0	32771	33170	
3250	0	32596	33246	
3251	0	32456	32720	
3252	0	32360	32815	
3253	0	32331	32984	
3254	0	32581	32864	
3255	0	32762	32723	
3256	0	32772	32673	
3257	0	32780	32419	
3258	0	32714	32163	
3259	0	32848	32039	
3260	0	32800	31841	
3261	0	32736	31895	
3262	0	32808	32161	
3263	0	32680	32447	
3264	0	32730	32466	
3265	0	32980	32413	
3266	0	33158	32537	
3267	0	33178	34092	
3268	0	33156	34571	
3269	0	33024	34523	
3270	0	32843	33418	
3271	0	32684	32730	
3272	0	32676	32549	
3273	0	32518	31537	
3274	0	32313	31714	
3275	0	32180	31623	
3276	0	32704	31923	
3277	0	33414	32535	
3278	0	33704	33154	
3279	0	34342	33663	
3280	0	34244	34430	
3281	0	33586	34510	
3282	0	32832	34173	
3283	0	32076	33586	
3284	0	31596	33110	
3285	0	31452	32285	
3286	0	31390	31524	
3287	0	31574	31309	
3288	0	32444	31487	
3289	0	33372	31304	
3290	0	33402	31839	
3291	0	33102	33249	
3292	0	32902	33126	
3293	0	32562	33052	
3294	0	32106	33402	
3295	0	31661	33198	
3296	0	31276	32838	
3297	0	31418	32375	
3298	0	31954	32129	
3299	0	32484	32184	
3300	0	32825	31924	
3301	0	33042	31472	
3302	0	33252	32143	
3303	0	33462	32296	
3304	0	33416	32425	
3305	0	32998	32857	
3306	0	32920	33264	
3307	0	33248	33280	
3308	0	33067	33578	
3309	0	32854	33626	
3310	0	32644	33202	
3311	0	32612	33234	
3312	0	32880	33008	
3313	0	33240	32738	
3314	0	32826	32819	
3315	0	32488	32019	
3316	0	32398	32048	
3317	0	33238	32145	
3318	0	33432	32571	
3319	0	33268	32637	
3320	0	32869	32696	
3321	0	32616	32834	
3322	0	32444	32895	
3323	0	32344	33630	
3324	0	32201	33216	
3325	0	32288	33326	
3326	0	32554	33360	
3327	0	32680	33263	
3328	0	32744	33120	
3329	0	32708	32830	
3330	0	32652	33087	
3331	0	32616	32828	
3332	0	32509	32614	
3333	0	32578	32200	
3334	0	32691	32150	
3335	0	32940	32071	
3336	0	33224	32014	
3337	0	33654	31850	
3338	0	33632	31984	
3339	0	33556	32413	
3340	0	33272	32852	
3341	0	33001	32537	
3342	0	32688	32611	
3343	0	32360	32763	
3344	0	32125	32263	
3345	0	32096	32460	
3346	0	32064	32807	
3347	0	32098	32893	
3348	0	32825	33253	
3349	0	33546	33610	
3350	0	33516	33321	
3351	0	33398	33266	
3352	0	33080	32980	
3353	0	32562	32863	
3354	0	32061	32713	
3355	0	31818	32617	
3356	0	31920	32431	
3357	0	32012	32512	
3358	0	32224	32723	
3359	0	32324	32693	
3360	0	32332	32607	
3361	0	32356	32711	
3362	0	32604	32462	
3363	0	32784	32434	
3364	0	32896	32356	
3365	0	33138	31931	
3366	0	33344	32318	
3367	0	33328	32642	
3368	0	33256	32775	
3369	0	33242	33143	
3370	0	33090	33304	
3371	0	32928	33334	
3372	0	32884	33325	
3373	0	32856	33013	
3374	0	32828	32923	
3375	0	32862	32486	
3376	0	32797	31878	
3377	0	32765	32042	
3378	0	32740	31928	
3379	0	32714	32523	
3380	0	32648	32749	
3381	0	32666	33052	
3382	0	32632	33335	
3383	0	32680	33349	
3384	0	32706	33229	
3385	0	32765	33312	
3386	0	32766	32941	
3387	0	32766	32710	
3388	0	32748	32870	
3389	0	32794	32755	
3390	0	32774	32939	
3391	0	32840	32770	
3392	0	32876	32573	
3393	0	32836	32743	
3394	0	32836	32475	
3395	0	32816	32758	
3396	0	32720	32699	
3397	0	32664	32756	
3398	0	32560	32738	
3399	0	32496	32524	
3400	0	32422	32687	
3401	0	32456	32472	
3402	0	32496	32316	
3403	0	32600	32228	
3404	0	32672	32034	
3405	0	32752	32240	
3406	0	32899	32790	
3407	0	32939	32964	
3408	0	32973	33058	
3409	0	32908	33355	
3410	0	32836	33466	
3411	0	32736	33234	
3412	0	32760	33261	
3413	0	32684	32775	
3414	0	32696	32571	
3415	0	32700	32725	
3416	0	32716	32726	
3417	0	32670	32399	
3418	0	32712	32598	
3419	0	32774	32594	
3420	0	32692	32434	
3421	0	32644	32659	
3422	0	32738	32180	
3423	0	32736	32258	
3424	0	32754	32562	
3425	0	32752	32524	
3426	0	32693	32854	
3427	0	32760	33050	
3428	0	32804	32857	
3429	0	32850	33259	
3430	0	32892	33114	
3431	0	32880	32989	
3432	0	32829	32799	
3433	0	32848	32971	
3434	0	32793	32484	
3435	0	32764	32567	
3436	0	32780	32702	
3437	0	32736	32730	
3438	0	32688	32599	
3439	0	32704	32530	
3440	0	32649	32455	
3441	0	33504	32513	
3442	0	33480	32580	
3443	0	33164	32559	
3444	0	32752	32530	
3445	0	32536	32815	
3446	0	32229	32937	
3447	0	32136	33031	
3448	0	32290	32787	
3449	0	32549	33049	
3450	0	32720	32857	
3451	0	32736	32537	
3452	0	32784	32762	
3453	0	32752	32746	
3454	0	32808	32466	
3455	0	33576	32620	
3456	0	33556	32774	
3457	0	32836	32792	
3458	0	32379	32659	
3459	0	32416	32775	
3460	0	33000	32559	
3461	0	32925	32478	
3462	0	32656	32811	
3463	0	32556	32635	
3464	0	32564	33067	
3465	0	32356	32911	
3466	0	32108	32963	
3467	0	31988	33105	
3468	0	31844	32848	
3469	0	31844	32984	
3470	0	31939	33031	
3471	0	32094	32743	
3472	0	32246	32471	
3473	0	32493	32608	
3474	0	32836	32529	
3475	0	33108	32143	
3476	0	33257	32454	
3477	0	33372	32603	
3478	0	33356	32491	
3479	0	33344	32909	
3480	0	33423	32704	
3481	0	33348	32864	
3482	0	33154	32591	
3483	0	33004	32481	
3484	0	32825	32973	
3485	0	32800	32658	
3486	0	32762	32330	
3487	0	32578	32423	
3488	0	32492	32376	
3489	0	32484	32668	
3490	0	32592	33056	
3491	0	32688	33144	
3492	0	32672	33211	
3493	0	32712	33539	
3494	0	32614	33424	
3495	0	32505	33222	
3496	0	32656	32964	
3497	0	32795	32593	
3498	0	32782	32325	
3499	0	32848	32252	
3500	0	32952	32255	
3501	0	33000	32201	
3502	0	32958	32566	
3503	0	32956	32495	
3504	0	32946	32539	
3505	0	32904	32647	
3506	0	32893	32454	
3507	0	32986	32478	
3508	0	33005	32558	
3509	0	32897	32903	
3510	0	32736	32879	
3511	0	32610	32955	
3512	0	32506	33271	
3513	0	32410	33321	
3514	0	32512	32843	
3515	0	32452	33003	
3516	0	32516	32645	
3517	0	32441	32656	
3518	0	32456	32646	
3519	0	32472	32476	
3520	0	32560	32438	
3521	0	32760	32127	
3522	0	32748	32595	
3523	0	32834	32667	
3524	0	32964	32545	
3525	0	33106	32728	
3526	0	33064	32653	
3527	0	32996	33218	
3528	0	32928	32962	
3529	0	32946	32966	
3530	0	32888	32943	
3531	0	32990	32986	
3532	0	33110	32947	
3533	0	33016	32942	
3534	0	32926	32869	
3535	0	32868	32868	
3536	0	32916	32560	
3537	0	32860	32633	
3538	0	32728	32536	
3539	0	33364	32477	
3540	0	33858	32374	
3541	0	33560	32352	
3542	0	32980	32651	
3543	0	32406	32830	
3544	0	31930	32893	
3545	0	31702	32978	
3546	0	31428	33214	
3547	0	31137	33452	
3548	0	30978	33927	
3549	0	31148	32237	
3550	0	31534	30680	
3551	0	32032	30306	
3552	0	32416	31155	
3553	0	33014	32494	
3554	0	33337	33393	
3555	0	33411	33819	
3556	0	33398	34247	
3557	0	33320	34379	
3558	0	33192	34638	
3559	0	33312	33573	
3560	0	33362	32404	
3561	0	33370	31760	
3562	0	33349	31045	
3563	0	33222	31447	
3564	0	33220	32065	
3565	0	33430	32016	
3566	0	33850	32647	
3567	0	33697	33102	
3568	0	33240	33223	
3569	0	32857	33171	
3570	0	32718	33202	
3571	0	33394	33406	
3572	0	33571	33455	
3573	0	33080	33678	
3574	0	32651	33776	
3575	0	32562	33192	
3576	0	32100	33188	
3577	0	31432	33211	
3578	0	30914	32916	
3579	0	30720	32852	
3580	0	30584	32127	
3581	0	30552	31086	
3582	0	30897	30230	
3583	0	31685	30087	
3584	0	32855	30505	
3585	0	33434	31677	
3586	0	33612	32238	
3587	0	33476	31547	
3588	0	33197	32975	
3589	0	33060	33799	
3590	0	33069	34402	
3591	0	33020	34215	
3592	0	33000	33477	
3593	0	33094	33447	
3594	0	33564	33704	
3595	0	34200	34140	
3596	0	34888	34770	
3597	0	34650	35071	
3598	0	34248	34815	
3599	0	33700	33951	
3600	0	32907	33687	
3601	0	32256	34052	
3602	0	31746	34006	
3603	0	31469	29634	
3604	0	31264	28544	
3605	0	31452	28396	
3606	0	31852	28613	
3607	0	32114	30132	
3608	0	32420	31224	
3609	0	32658	32356	
3610	0	32750	33874	
3611	0	32648	34496	
3612	0	32672	34375	
3613	0	32616	34119	
3614	0	32504	34169	
3615	0	32384	33572	
3616	0	32464	32966	
3617	0	32984	32103	
3618	0	33234	32102	
3619	0	33418	32895	
3620	0	34194	33387	
3621	0	34332	33259	
3622	0	33900	32772	
3623	0	33344	33071	
3624	0	32730	32927	
3625	0	32466	32954	
3626	0	33426	32545	
3627	0	34251	32581	
3628	0	35048	32681	
3629	0	35218	33346	
3630	0	34494	33424	
3631	0	33154	32376	
3632	0	31438	32078	
3633	0	29984	32231	
3634	0	28964	31873	
3635	0	27986	31334	
3636	0	27720	30468	
3637	0	28376	32032	
3638	0	30044	33469	
3639	0	32498	34480	
3640	0	34236	34850	
3641	0	34816	35078	
3642	0	34346	34444	
3643	0	34080	33863	
3644	0	33836	33287	
3645	0	33581	32794	
3646	0	33160	32357	
3647	0	32722	30804	
3648	0	32430	30904	
3649	0	32384	31807	
3650	0	32384	31897	
3651	0	32538	31911	
3652	0	32588	32011	
3653	0	32456	30204	
3654	0	32568	28335	
3655	0	32788	29215	
3656	0	33068	30755	
3657	0	33194	32782	
3658	0	33476	34393	
3659	0	33690	36524	
3660	0	34062	37864	
3661	0	34360	38983	
3662	0	34160	39139	
3663	0	33902	34996	
3664	0	33538	32283	
3665	0	33208	30937	
3666	0	33090	29008	
3667	0	32928	28596	
3668	0	32504	30142	
3669	0	32140	30888	
3670	0	31950	31580	
3671	0	32030	32256	
3672	0	32192	32982	
3673	0	32288	34055	
3674	0	32386	35003	
3675	0	32568	34649	
3676	0	32708	33554	
3677	0	33158	32525	
3678	0	33700	31211	
3679	0	33923	30792	
3680	0	34244	31182	
3681	0	35618	32290	
3682	0	36449	31869	
3683	0	35932	30828	
3684	0	35268	31166	
3685	0	33746	32005	
3686	0	32038	34412	
3687	0	30727	35620	
3688	0	30410	36050	
3689	0	29924	36697	
3690	0	29426	35398	
3691	0	28970	33379	
3692	0	28700	32189	
3693	0	28428	31741	
3694	0	28208	31444	
3695	0	28802	31023	
3696	0	29468	31088	
3697	0	30420	32742	
3698	0	31684	33704	
3699	0	33088	33799	
3700	0	34644	33586	
3701	0	35824	31389	
3702	0	36149	30831	
3703	0	36445	32360	
3704	0	36462	33184	
3705	0	36480	33000	
3706	0	36456	33165	
3707	0	35992	32509	
3708	0	34944	32371	
3709	0	33646	31817	
3710	0	32434	30889	
3711	0	31284	32182	
3712	0	30432	32120	
3713	0	29816	31802	
3714	0	29574	32891	
3715	0	29528	34520	
3716	0	30210	34680	
3717	0	31000	34431	
3718	0	32012	33755	
3719	0	33170	33002	
3720	0	33328	32218	
3721	0	33604	31623	
3722	0	33616	31199	
3723	0	33516	31216	
3724	0	33756	31688	
3725	0	34050	32125	
3726	0	34708	34183	
3727	0	35195	34916	
3728	0	35386	35084	
3729	0	35746	34406	
3730	0	35713	33415	
3731	0	35076	33986	
3732	0	34074	36101	
3733	0	33268	35224	
3734	0	31996	33465	
3735	0	30492	31012	
3736	0	29572	31776	
3737	0	29274	32436	
3738	0	29432	31188	
3739	0	30116	30437	
3740	0	31004	27984	
3741	0	31840	25915	
3742	0	31912	28889	
3743	0	31750	30858	
3744	0	32135	31429	
3745	0	32620	32901	
3746	0	33336	35950	
3747	0	34266	35064	
3748	0	35144	35258	
3749	0	35560	36980	
3750	0	35364	38969	
3751	0	34680	36306	
3752	0	34082	35522	
3753	0	33728	34928	
3754	0	33468	32712	
3755	0	33038	33061	
3756	0	32422	27548	
3757	0	31980	26606	
3758	0	30822	25106	
3759	0	29676	29849	
3760	0	29252	34089	
3761	0	29184	34546	
3762	0	30106	34672	
3763	0	31920	32771	
3764	0	33632	32016	
3765	0	34408	32027	
3766	0	35277	29312	
3767	0	36106	28120	
3768	0	36796	31608	
3769	0	36674	36200	
3770	0	36416	35778	
3771	0	34936	36680	
3772	0	32248	37988	
3773	0	29761	36422	
3774	0	27861	31124	
3775	0	26888	27042	
3776	0	27211	26316	
3777	0	27942	29020	
3778	0	28193	33316	
3779	0	29714	35994	
3780	0	31648	37506	
3781	0	33576	36889	
3782	0	34884	33475	
3783	0	35752	29248	
3784	0	36072	28904	
3785	0	35396	30906	
3786	0	34439	32085	
3787	0	33728	32713	
3788	0	33352	30567	
3789	0	33430	31623	
3790	0	33500	32470	
3791	0	33522	34781	
3792	0	33028	36434	
3793	0	32750	38612	
3794	0	33250	40178	
3795	0	33596	39790	
3796	0	33426	37131	
3797	0	33336	31652	
3798	0	32664	29995	
3799	0	32608	29919	
3800	0	33008	29922	
3801	0	33268	27628	
3802	0	32825	29528	
3803	0	32116	37208	
3804	0	31056	39515	
3805	0	31010	36132	
3806	0	31904	31800	
3807	0	33004	21946	
3808	0	34040	15425	
3809	0	34628	20084	
3810	0	34720	25910	
3811	0	34332	32770	
3812	0	33672	36634	
3813	0	33292	35821	
3814	0	32608	34418	
3815	0	32064	36000	
3816	0	31588	38764	
3817	0	31120	39419	
3818	0	30881	37988	
3819	0	30936	33714	
3820	0	31732	36708	
3821	0	32243	35618	
3822	0	32244	36483	
3823	0	32496	34096	
3824	0	32776	27944	
3825	0	32900	29912	
3826	0	33112	37510	
3827	0	33326	39197	
3828	0	33412	36148	
3829	0	33424	33894	
3830	0	33186	28972	
3831	0	33000	27071	
3832	0	32864	29986	
3833	0	32758	31852	
3834	0	33057	26972	
3835	0	33416	25625	
3836	0	33828	28258	
3837	0	34064	30905	
3838	0	34008	26466	
3839	0	33522	26544	
3840	0	32740	34060	
3841	0	32197	40808	
3842	0	31768	41328	
3843	0	31414	38992	
3844	0	31256	35582	
3845	0	31936	30492	
3846	0	32255	30984	
3847	0	32340	34137	
3848	0	32508	36104	
3849	0	32672	37882	
3850	0	32940	38904	
3851	0	32925	36430	
3852	0	32868	34173	
3853	0	32792	31598	
3854	0	32930	28008	
3855	0	33008	24680	
3856	0	33000	25951	
3857	0	32996	30923	
3858	0	32944	35575	
3859	0	32904	33247	
3860	0	32808	36771	
3861	0	32788	35275	
3862	0	32744	30024	
3863	0	32836	19301	
3864	0	32907	18601	
3865	0	32984	20768	
3866	0	33064	27680	
3867	0	33034	39081	
3868	0	32891	45050	
3869	0	32676	43620	
3870	0	32534	41447	
3871	0	32726	37162	
3872	0	32800	31408	
3873	0	32416	31327	
3874	0	32221	28976	
3875	0	32236	31650	
3876	0	32253	31936	
3877	0	32248	28289	
3878	0	32326	30726	
3879	0	32342	34030	
3880	0	32360	34194	
3881	0	32644	36843	
3882	0	32936	41536	
3883	0	32976	39431	
3884	0	33036	34013	
3885	0	33026	30544	
3886	0	32870	29730	
3887	0	32840	30333	
3888	0	32996	30075	
3889	0	33236	29122	
3890	0	33360	32638	
3891	0	33376	34567	
3892	0	33474	33727	
3893	0	33324	32524	
3894	0	33068	31320	
3895	0	32840	29426	
3896	0	32694	30689	
3897	0	32118	32021	
3898	0	31800	33021	
3899	0	31614	34569	
