# OpenSignals Text File Format
# {"00:07:80:3B:46:58": {"sensor": ["EMG", "EMG"], "device name": "00:07:80:3B:46:58", "column": ["nSeq", "DI", "ACC X", "ACC Y"], "sync interval": 2, "time": "16:11:4.459", "comments": "", "device connection": "BTH00:07:80:3B:46:58", "channels": [1, 2], "date": "2016-8-24", "mode": 0, "digital IO": [0, 1], "firmware version": 772, "device": "biosignalsplux", "position": 0, "sampling rate": 1000, "label": ["ACC X", "ACC Y"], "resolution": [16, 16], "special": [{}, {}]}}
# EndOfHeader
0	0	32860	32432	
1	0	32877	31858	
2	0	32980	31955	
3	0	32920	32688	
4	0	33017	32807	
5	0	33244	33428	
6	0	33108	33255	
7	0	32924	32714	
8	0	32836	32221	
9	0	32666	32169	
10	0	32249	31682	
11	0	32164	30308	
12	0	32548	30487	
13	0	33028	31142	
14	0	33616	31822	
15	0	34140	33018	
16	0	34088	34025	
17	0	33498	35487	
18	0	33000	35203	
19	0	32268	33568	
20	0	31488	32557	
21	0	31008	32859	
22	0	30672	32413	
23	0	30780	31039	
24	0	31377	31768	
25	0	31816	33572	
26	0	32360	33992	
27	0	32675	33271	
28	0	32430	31866	
29	0	32226	32326	
30	0	32312	30628	
31	0	32277	32048	
32	0	32549	34258	
33	0	33140	33610	
34	0	33744	34038	
35	0	34208	35080	
36	0	34272	34175	
37	0	34072	33671	
38	0	33684	33530	
39	0	33136	33159	
40	0	32570	32067	
41	0	31911	29844	
42	0	31560	29871	
43	0	31582	31155	
44	0	31758	31535	
45	0	32298	32263	
46	0	32978	30720	
47	0	33528	30557	
48	0	33514	32516	
49	0	33470	33257	
50	0	33252	32878	
51	0	33072	33701	
52	0	32664	33917	
53	0	32180	33629	
54	0	31968	34274	
55	0	32272	34053	
56	0	32512	33271	
57	0	32688	33175	
58	0	33092	33415	
59	0	33136	32662	
60	0	33076	32844	
61	0	32930	32682	
62	0	32722	32853	
63	0	32372	31900	
64	0	32516	32224	
65	0	32836	33026	
66	0	33168	32798	
67	0	33445	31708	
68	0	33496	30872	
69	0	33528	31565	
70	0	33352	32407	
71	0	33116	32817	
72	0	32824	33212	
73	0	32592	33918	
74	0	32336	34331	
75	0	32144	33957	
76	0	32292	33152	
77	0	32546	32680	
78	0	32660	32160	
79	0	32628	32557	
80	0	32625	32709	
81	0	32573	32447	
82	0	32813	31872	
83	0	32950	32122	
84	0	32952	32684	
85	0	32772	32032	
86	0	32676	33170	
87	0	32536	34780	
88	0	32476	35387	
89	0	32348	34066	
90	0	32442	32135	
91	0	32544	30183	
92	0	32612	30699	
93	0	32720	31428	
94	0	32824	31548	
95	0	32792	32066	
96	0	32992	33132	
97	0	33356	32928	
98	0	33418	32989	
99	0	33260	32164	
100	0	33088	32677	
101	0	33039	33505	
102	0	32812	33746	
103	0	32676	33793	
104	0	32477	33279	
105	0	32373	32585	
106	0	32494	32124	
107	0	32605	32653	
108	0	32696	33399	
109	0	32832	33437	
110	0	32976	33520	
111	0	32868	32676	
112	0	32856	32162	
113	0	33092	31909	
114	0	33168	32478	
115	0	33033	33131	
116	0	32765	33496	
117	0	32528	32773	
118	0	32409	31784	
119	0	32288	32533	
120	0	32022	32893	
121	0	31928	32555	
122	0	32156	32854	
123	0	32644	32924	
124	0	32821	32214	
125	0	32636	32672	
126	0	32644	32399	
127	0	32808	32386	
128	0	32770	32452	
129	0	32652	32443	
130	0	32441	31451	
131	0	32276	31762	
132	0	31926	33443	
133	0	32032	34155	
134	0	32800	33098	
135	0	33264	33124	
136	0	33533	33911	
137	0	33864	34632	
138	0	33968	34775	
139	0	34034	32144	
140	0	33972	30700	
141	0	33661	31050	
142	0	33272	31973	
143	0	32880	31862	
144	0	32420	32091	
145	0	31952	33006	
146	0	31691	34285	
147	0	31492	34917	
148	0	31764	33595	
149	0	32472	32557	
150	0	33362	32263	
151	0	33860	32472	
152	0	34202	32402	
153	0	33924	32498	
154	0	33241	32664	
155	0	32208	32762	
156	0	30836	33349	
157	0	29332	33152	
158	0	28906	33081	
159	0	29858	33119	
160	0	30920	32631	
161	0	32457	32866	
162	0	33542	33174	
163	0	34072	33152	
164	0	34368	33088	
165	0	34212	32807	
166	0	34088	31879	
167	0	33884	30832	
168	0	33834	30595	
169	0	33840	30844	
170	0	33906	31875	
171	0	33730	32304	
172	0	33565	32940	
173	0	33324	33491	
174	0	33194	33159	
175	0	33117	33130	
176	0	33104	33377	
177	0	32632	32886	
178	0	31867	32732	
179	0	31434	32930	
180	0	31402	33159	
181	0	31668	32887	
182	0	31990	32944	
183	0	32228	33022	
184	0	32290	33042	
185	0	32512	32159	
186	0	32748	32500	
187	0	32775	32715	
188	0	32898	32836	
189	0	32836	32600	
190	0	32720	32646	
191	0	32600	32562	
192	0	32664	32473	
193	0	32634	33200	
194	0	32836	33548	
195	0	32982	33274	
196	0	33100	33382	
197	0	33068	32912	
198	0	33132	32384	
199	0	33344	32142	
200	0	33377	32960	
201	0	33322	33124	
202	0	33208	32995	
203	0	33048	32538	
204	0	32914	32228	
205	0	32456	32470	
206	0	32086	32671	
207	0	32540	31951	
208	0	32988	31455	
209	0	33117	32095	
210	0	33116	32341	
211	0	32984	32609	
212	0	32610	33180	
213	0	32256	34112	
214	0	31988	34391	
215	0	32218	33728	
216	0	32315	32774	
217	0	31972	32701	
218	0	32060	33065	
219	0	32476	31691	
220	0	33298	29918	
221	0	33757	31751	
222	0	34128	32804	
223	0	33996	32733	
224	0	33225	33645	
225	0	32698	34930	
226	0	32340	35054	
227	0	32036	32290	
228	0	31932	30963	
229	0	31441	31609	
230	0	30988	31613	
231	0	31296	32311	
232	0	31576	32388	
233	0	31602	33296	
234	0	31884	33481	
235	0	32419	33241	
236	0	32748	33584	
237	0	33048	34306	
238	0	33352	33472	
239	0	33706	33150	
240	0	33888	33058	
241	0	34000	32891	
242	0	34020	32996	
243	0	33942	32314	
244	0	33482	32445	
245	0	32868	32446	
246	0	32152	32878	
247	0	31590	32290	
248	0	31304	30868	
249	0	31600	29820	
250	0	32260	31564	
251	0	32968	31937	
252	0	33402	32772	
253	0	33666	33715	
254	0	33520	35137	
255	0	33504	33858	
256	0	33723	32549	
257	0	33812	32320	
258	0	33860	32666	
259	0	33714	33429	
260	0	33526	32955	
261	0	33330	33154	
262	0	33032	32606	
263	0	32656	32411	
264	0	32316	32364	
265	0	32178	32712	
266	0	31867	32323	
267	0	31680	32573	
268	0	31722	32242	
269	0	31676	32800	
270	0	31588	32626	
271	0	31931	32713	
272	0	32662	32643	
273	0	33536	33055	
274	0	34129	33010	
275	0	33761	32903	
276	0	32920	33258	
277	0	32793	32967	
278	0	32778	32530	
279	0	32488	32455	
280	0	32322	33143	
281	0	32404	33229	
282	0	32352	32789	
283	0	32372	32219	
284	0	32484	32326	
285	0	32713	32320	
286	0	32962	32623	
287	0	33238	32870	
288	0	33345	31970	
289	0	33208	31476	
290	0	32976	33180	
291	0	32854	34254	
292	0	32952	33975	
293	0	32882	34530	
294	0	32480	33535	
295	0	31412	32240	
296	0	31266	32113	
297	0	32216	32252	
298	0	32692	31925	
299	0	32896	32496	
300	0	32898	32228	
301	0	32870	32171	
302	0	32668	32241	
303	0	32332	31542	
304	0	32088	31442	
305	0	32004	32206	
306	0	31800	32621	
307	0	32016	33071	
308	0	32372	33680	
309	0	32936	33206	
310	0	33117	32938	
311	0	33240	33025	
312	0	33158	33154	
313	0	33322	33891	
314	0	33464	33667	
315	0	33346	33180	
316	0	33100	33063	
317	0	33085	32357	
318	0	33218	32235	
319	0	33193	32365	
320	0	33254	32696	
321	0	33132	33405	
322	0	33010	33314	
323	0	32712	33942	
324	0	32728	32840	
325	0	32864	31289	
326	0	32888	30788	
327	0	32896	30786	
328	0	32864	31656	
329	0	32809	31378	
330	0	32816	32726	
331	0	33024	33688	
332	0	33088	33420	
333	0	33236	33753	
334	0	33316	33477	
335	0	33140	33477	
336	0	32612	33243	
337	0	32312	32561	
338	0	31812	32490	
339	0	31328	32085	
340	0	31540	32256	
341	0	31932	32708	
342	0	32321	32679	
343	0	32357	32561	
344	0	32168	32775	
345	0	32139	32621	
346	0	32332	32549	
347	0	32664	32023	
348	0	32963	32215	
349	0	32977	32485	
350	0	33240	33156	
351	0	33221	33774	
352	0	33328	33522	
353	0	33326	33385	
354	0	33190	33085	
355	0	32944	33623	
356	0	32910	33469	
357	0	33006	33072	
358	0	33146	32516	
359	0	33324	32334	
360	0	33396	32402	
361	0	33388	32402	
362	0	33380	32444	
363	0	33376	32485	
364	0	33488	32915	
365	0	33244	32925	
366	0	32980	32335	
367	0	32872	32255	
368	0	32448	32106	
369	0	32185	32075	
370	0	32028	32605	
371	0	31416	32663	
372	0	30746	32802	
373	0	30656	32998	
374	0	31272	33419	
375	0	32498	33187	
376	0	33160	32744	
377	0	33210	32768	
378	0	33176	33239	
379	0	33090	32991	
380	0	32834	33023	
381	0	32316	32829	
382	0	31840	32573	
383	0	31448	32831	
384	0	31628	32593	
385	0	32362	32462	
386	0	33150	32508	
387	0	33562	32416	
388	0	33536	32445	
389	0	33469	32097	
390	0	33424	32446	
391	0	33296	33014	
392	0	33192	33217	
393	0	33180	33057	
394	0	33237	33251	
395	0	33372	32839	
396	0	33376	32828	
397	0	33176	32897	
398	0	33000	32565	
399	0	33018	32537	
400	0	33216	32447	
401	0	33217	32870	
402	0	32936	32770	
403	0	32840	32377	
404	0	32520	32414	
405	0	32708	32410	
406	0	33084	32549	
407	0	33058	32480	
408	0	33098	31700	
409	0	33116	32026	
410	0	32824	32196	
411	0	32282	32892	
412	0	31696	33226	
413	0	30788	33824	
414	0	30260	34296	
415	0	30608	34137	
416	0	31224	33287	
417	0	32020	32856	
418	0	32814	32992	
419	0	33172	33448	
420	0	33192	33253	
421	0	33120	33031	
422	0	32929	32666	
423	0	33134	31775	
424	0	33518	31348	
425	0	33796	30603	
426	0	33804	30401	
427	0	33645	31517	
428	0	33224	32964	
429	0	33146	33316	
430	0	33072	33127	
431	0	32450	32808	
432	0	32164	33069	
433	0	32368	32693	
434	0	32604	32831	
435	0	32658	33472	
436	0	32715	33618	
437	0	32762	33272	
438	0	32960	33286	
439	0	32972	32966	
440	0	32869	32821	
441	0	33083	33369	
442	0	33232	33088	
443	0	33101	32294	
444	0	32730	32516	
445	0	32266	32409	
446	0	31909	31911	
447	0	31848	31344	
448	0	32052	31440	
449	0	32333	32472	
450	0	32526	32643	
451	0	32790	33337	
452	0	32837	33353	
453	0	32896	33344	
454	0	33232	33134	
455	0	33420	33144	
456	0	33364	32715	
457	0	33232	32736	
458	0	33221	32936	
459	0	33054	33241	
460	0	32652	33026	
461	0	32352	33136	
462	0	32248	32664	
463	0	32236	32510	
464	0	32126	32287	
465	0	32184	32391	
466	0	32292	32573	
467	0	32448	32308	
468	0	32762	32361	
469	0	33100	32647	
470	0	33156	33189	
471	0	33218	32889	
472	0	33414	32670	
473	0	33466	32523	
474	0	33528	33163	
475	0	33652	33046	
476	0	33504	33076	
477	0	33236	33482	
478	0	32893	33373	
479	0	32594	33418	
480	0	32490	33167	
481	0	32717	32707	
482	0	32797	32480	
483	0	32673	32356	
484	0	31744	32549	
485	0	31318	32455	
486	0	31624	32139	
487	0	31620	31879	
488	0	31645	32280	
489	0	32034	32403	
490	0	32692	32262	
491	0	33389	32746	
492	0	33517	32951	
493	0	33296	33143	
494	0	33044	33607	
495	0	32732	33305	
496	0	32328	32766	
497	0	31904	32848	
498	0	31560	32942	
499	0	31800	32765	
500	0	32270	32514	
501	0	32621	32585	
502	0	32968	32430	
503	0	33312	32880	
504	0	33724	32886	
505	0	34010	32466	
506	0	33876	32442	
507	0	33795	32263	
508	0	33650	32372	
509	0	33392	32541	
510	0	33152	32341	
511	0	32889	32834	
512	0	32660	32998	
513	0	32676	32624	
514	0	32776	32814	
515	0	32624	33215	
516	0	32443	32713	
517	0	32592	33143	
518	0	32668	33187	
519	0	32808	33082	
520	0	32544	33031	
521	0	32424	32953	
522	0	32544	32832	
523	0	32588	32933	
524	0	32276	32576	
525	0	32094	32487	
526	0	32152	32532	
527	0	32290	32175	
528	0	32448	32477	
529	0	32596	32438	
530	0	32760	32679	
531	0	32776	33192	
532	0	32892	33202	
533	0	32930	33186	
534	0	33032	33193	
535	0	33116	32966	
536	0	33224	32685	
537	0	33106	32583	
538	0	33214	32515	
539	0	33236	32439	
540	0	33420	32231	
541	0	33530	32370	
542	0	33438	32815	
543	0	33408	33023	
544	0	32952	32870	
545	0	32379	32404	
546	0	31864	32274	
547	0	31705	31560	
548	0	31256	31136	
549	0	30852	31780	
550	0	31193	32004	
551	0	32061	32378	
552	0	33062	33016	
553	0	33451	33526	
554	0	33428	33942	
555	0	33388	33342	
556	0	33396	32914	
557	0	33481	32786	
558	0	33458	32630	
559	0	33064	33043	
560	0	32200	33383	
561	0	31636	33103	
562	0	32000	33180	
563	0	32214	33047	
564	0	32374	32626	
565	0	32328	32445	
566	0	32208	32551	
567	0	32736	32223	
568	0	33042	32127	
569	0	33232	32536	
570	0	33004	32583	
571	0	32724	32775	
572	0	32706	32693	
573	0	32706	33046	
574	0	32836	33049	
575	0	33216	32940	
576	0	33332	33212	
577	0	33098	32867	
578	0	32792	32906	
579	0	32616	32840	
580	0	32526	32771	
581	0	32410	32686	
582	0	32662	32596	
583	0	32992	32530	
584	0	33098	32390	
585	0	33190	32538	
586	0	33452	32527	
587	0	33606	32114	
588	0	33564	32367	
589	0	33280	32473	
590	0	32968	32367	
591	0	32654	32859	
592	0	32445	33015	
593	0	32197	33124	
594	0	31901	33285	
595	0	32038	32864	
596	0	32308	33010	
597	0	32620	33137	
598	0	32948	33287	
599	0	33131	33013	
600	0	33211	32835	
601	0	33278	32617	
602	0	33152	32361	
603	0	33248	32634	
604	0	33033	32410	
605	0	32808	32450	
606	0	32662	32626	
607	0	32671	32218	
608	0	32842	32401	
609	0	33000	32182	
610	0	32793	32626	
611	0	31984	32828	
612	0	31616	33296	
613	0	31756	33158	
614	0	32314	32996	
615	0	32688	33211	
616	0	32818	32809	
617	0	32642	32876	
618	0	32552	33159	
619	0	32389	32939	
620	0	32420	32514	
621	0	32608	32790	
622	0	32569	32553	
623	0	32537	32637	
624	0	32584	32435	
625	0	32620	32308	
626	0	32420	32194	
627	0	32782	32142	
628	0	33120	32730	
629	0	33128	32182	
630	0	33360	32390	
631	0	33508	32797	
632	0	33440	33117	
633	0	33232	33109	
634	0	32984	33106	
635	0	32932	33510	
636	0	33008	33309	
637	0	33018	33390	
638	0	32786	33441	
639	0	32252	33132	
640	0	31704	33170	
641	0	31512	32670	
642	0	31425	32503	
643	0	31561	32490	
644	0	32144	32624	
645	0	32862	32384	
646	0	33152	32183	
647	0	33818	32175	
648	0	34352	32199	
649	0	34276	32152	
650	0	33906	31903	
651	0	33548	32804	
652	0	33240	33367	
653	0	32716	33171	
654	0	32292	33580	
655	0	31817	33415	
656	0	31321	32917	
657	0	31230	32840	
658	0	31702	33121	
659	0	32169	32786	
660	0	32224	32847	
661	0	32337	32647	
662	0	32660	32244	
663	0	33123	32221	
664	0	33364	32184	
665	0	33366	32406	
666	0	33106	32438	
667	0	33341	32106	
668	0	33720	32346	
669	0	34148	32911	
670	0	34508	32635	
671	0	34672	32396	
672	0	34013	32919	
673	0	33362	32693	
674	0	32788	32549	
675	0	32104	33116	
676	0	31738	33253	
677	0	31368	33214	
678	0	31288	32731	
679	0	31512	32810	
680	0	31892	32367	
681	0	31878	31856	
682	0	31880	32218	
683	0	32276	32835	
684	0	32886	33287	
685	0	33656	33050	
686	0	34242	32636	
687	0	34276	32905	
688	0	33830	32877	
689	0	33172	32800	
690	0	32672	32939	
691	0	31818	32500	
692	0	31365	32483	
693	0	31086	33056	
694	0	31622	33325	
695	0	33148	33353	
696	0	34376	33434	
697	0	34858	33090	
698	0	34880	32973	
699	0	35250	32954	
700	0	35080	32925	
701	0	34364	32994	
702	0	33328	32609	
703	0	31760	32229	
704	0	29968	31954	
705	0	28372	32274	
706	0	26922	32422	
707	0	26370	32224	
708	0	27320	32502	
709	0	29426	32391	
710	0	31250	32441	
711	0	32800	32551	
712	0	34028	32345	
713	0	35156	32751	
714	0	35690	32758	
715	0	36240	32866	
716	0	36680	32994	
717	0	36976	32801	
718	0	36960	32973	
719	0	36546	32751	
720	0	36280	32862	
721	0	35636	32539	
722	0	34112	32670	
723	0	32587	32753	
724	0	30628	32664	
725	0	28732	32668	
726	0	28495	32179	
727	0	29572	32076	
728	0	30416	32402	
729	0	30340	32411	
730	0	30466	32897	
731	0	31506	33054	
732	0	32416	32992	
733	0	33176	33299	
734	0	33581	33384	
735	0	33920	33219	
736	0	34296	33087	
737	0	35130	32741	
738	0	35788	33062	
739	0	35568	32866	
740	0	34562	32817	
741	0	32874	32857	
742	0	32352	32527	
743	0	32626	32328	
744	0	32706	32098	
745	0	31858	32082	
746	0	30418	32758	
747	0	30236	32774	
748	0	32068	32770	
749	0	33336	32484	
750	0	33224	32513	
751	0	32216	32713	
752	0	31608	33199	
753	0	31196	33421	
754	0	30137	32857	
755	0	28637	32553	
756	0	27632	32320	
757	0	28186	31900	
758	0	31168	32610	
759	0	34178	32696	
760	0	35433	33644	
761	0	35652	33615	
762	0	36093	33287	
763	0	36864	33287	
764	0	37770	32932	
765	0	38360	32831	
766	0	37856	32155	
767	0	35850	31788	
768	0	33320	31879	
769	0	29492	31773	
770	0	27840	31696	
771	0	27964	32495	
772	0	29568	33196	
773	0	30580	34018	
774	0	31286	34083	
775	0	32298	33627	
776	0	32980	32881	
777	0	33292	31986	
778	0	33640	30866	
779	0	33130	30505	
780	0	32330	31511	
781	0	32364	32677	
782	0	33360	33506	
783	0	33852	33916	
784	0	33821	33562	
785	0	33200	33221	
786	0	33392	33216	
787	0	33804	33073	
788	0	33528	32466	
789	0	32452	32059	
790	0	31610	32646	
791	0	32090	32842	
792	0	32808	32771	
793	0	33438	33188	
794	0	34248	33602	
795	0	35378	33734	
796	0	36624	33282	
797	0	36978	32996	
798	0	36072	32892	
799	0	34808	32903	
800	0	32820	32354	
801	0	30034	32181	
802	0	28100	32443	
803	0	28426	32723	
804	0	28772	31751	
805	0	27760	31436	
806	0	26124	31518	
807	0	27592	32082	
808	0	30491	32989	
809	0	32852	33705	
810	0	34704	33997	
811	0	35660	34175	
812	0	35306	34243	
813	0	34236	33365	
814	0	33888	32434	
815	0	34498	32196	
816	0	35051	31776	
817	0	35466	31412	
818	0	36182	31704	
819	0	35796	32317	
820	0	34208	33792	
821	0	31784	34610	
822	0	30288	35270	
823	0	29276	33716	
824	0	29376	32530	
825	0	30102	31751	
826	0	31424	30834	
827	0	32034	31424	
828	0	32468	32028	
829	0	32876	32350	
830	0	34028	32410	
831	0	34952	31968	
832	0	34800	31867	
833	0	33954	32161	
834	0	33760	32142	
835	0	33300	32608	
836	0	32868	32897	
837	0	32360	32939	
838	0	33266	32404	
839	0	34024	31879	
840	0	33860	32190	
841	0	33148	32600	
842	0	32484	33536	
843	0	31544	34279	
844	0	31408	34871	
845	0	31816	34227	
846	0	31389	33197	
847	0	30727	33188	
848	0	30088	31911	
849	0	30965	31575	
850	0	32646	32132	
851	0	34128	33180	
852	0	34344	33674	
853	0	34476	33032	
854	0	34663	32973	
855	0	34688	32918	
856	0	34778	30960	
857	0	34420	29298	
858	0	33580	30809	
859	0	32350	33372	
860	0	31464	35644	
861	0	31144	36597	
862	0	30744	35759	
863	0	30386	34787	
864	0	30149	33544	
865	0	30713	32277	
866	0	31652	32239	
867	0	32716	32028	
868	0	33964	31708	
869	0	34544	31560	
870	0	34116	32346	
871	0	33396	32895	
872	0	33210	32378	
873	0	34028	31682	
874	0	34504	31730	
875	0	34721	32375	
876	0	35528	32641	
877	0	35472	32064	
878	0	35552	30772	
879	0	35086	31451	
880	0	33496	32557	
881	0	31480	33812	
882	0	29766	34904	
883	0	29330	34929	
884	0	28900	34390	
885	0	28912	33776	
886	0	28976	33363	
887	0	29496	31956	
888	0	31100	31207	
889	0	32064	30916	
890	0	32668	31265	
891	0	33330	31874	
892	0	33732	32356	
893	0	34016	32775	
894	0	34289	32905	
895	0	33858	33197	
896	0	34140	33098	
897	0	34804	32822	
898	0	35082	32903	
899	0	35528	33324	
900	0	35712	32960	
901	0	35744	32792	
902	0	35184	32710	
903	0	33746	32576	
904	0	33032	32739	
905	0	32644	32802	
906	0	31812	32658	
907	0	30608	32061	
908	0	29429	31832	
909	0	27938	32615	
910	0	27908	32763	
911	0	28308	33248	
912	0	29024	33873	
913	0	30152	34013	
914	0	31228	33644	
915	0	33354	32958	
916	0	34900	32254	
917	0	35518	31974	
918	0	36230	32496	
919	0	36141	32846	
920	0	34945	32676	
921	0	34000	32526	
922	0	32697	32844	
923	0	31828	32871	
924	0	30688	32720	
925	0	30538	33007	
926	0	30530	33102	
927	0	29428	33132	
928	0	30625	33278	
929	0	32708	32768	
930	0	33872	32415	
931	0	34217	32416	
932	0	34586	32348	
933	0	35164	32354	
934	0	35002	32537	
935	0	35040	32263	
936	0	35720	32592	
937	0	35472	32797	
938	0	33764	32761	
939	0	32312	32813	
940	0	31500	32114	
941	0	30658	30885	
942	0	29838	31084	
943	0	30542	31666	
944	0	32817	32319	
945	0	34960	32730	
946	0	35891	33660	
947	0	35780	34380	
948	0	36108	34951	
949	0	35809	35014	
950	0	34876	34684	
951	0	32476	33706	
952	0	30388	32452	
953	0	27716	31049	
954	0	26064	31158	
955	0	26328	31183	
956	0	26570	31781	
957	0	28888	32041	
958	0	31376	31912	
959	0	34265	32397	
960	0	35170	33024	
961	0	34884	33538	
962	0	35344	33026	
963	0	35280	32235	
964	0	35504	32819	
965	0	35348	32840	
966	0	34574	33423	
967	0	33826	33103	
968	0	34096	32138	
969	0	34208	31777	
970	0	34168	32069	
971	0	33868	32101	
972	0	33156	32950	
973	0	33097	33232	
974	0	33456	33735	
975	0	32360	33475	
976	0	30976	33142	
977	0	30524	32840	
978	0	29300	32570	
979	0	29064	32475	
980	0	30160	32815	
981	0	29818	32618	
982	0	29980	32783	
983	0	32432	33095	
984	0	33916	32517	
985	0	34848	32276	
986	0	35020	31432	
987	0	35352	30418	
988	0	36456	31182	
989	0	37162	32587	
990	0	37200	33855	
991	0	36416	34426	
992	0	35331	35047	
993	0	34580	34276	
994	0	33228	33095	
995	0	31850	32508	
996	0	31184	31988	
997	0	30080	32408	
998	0	29384	33554	
999	0	29602	33728	
1000	0	30324	34610	
1001	0	29854	34182	
1002	0	28872	33580	
1003	0	30189	32200	
1004	0	30528	30917	
1005	0	30530	30418	
1006	0	31420	31183	
1007	0	32050	32025	
1008	0	31835	32850	
1009	0	31856	33489	
1010	0	31856	33319	
1011	0	32728	32760	
1012	0	33441	32887	
1013	0	35052	32404	
1014	0	36512	31722	
1015	0	36944	31990	
1016	0	34865	32582	
1017	0	32832	32646	
1018	0	31458	33090	
1019	0	31704	32958	
1020	0	31936	32697	
1021	0	33828	33190	
1022	0	36708	33358	
1023	0	38572	33031	
1024	0	39208	33095	
1025	0	37648	32951	
1026	0	34610	32619	
1027	0	29106	32792	
1028	0	25456	32733	
1029	0	26010	32775	
1030	0	28836	32844	
1031	0	31530	32450	
1032	0	33402	32530	
1033	0	33521	33065	
1034	0	32736	32850	
1035	0	31556	32548	
1036	0	28568	31973	
1037	0	26272	31514	
1038	0	25572	31942	
1039	0	29194	32576	
1040	0	33532	32770	
1041	0	37721	32870	
1042	0	40852	33287	
1043	0	40425	33708	
1044	0	39020	34284	
1045	0	37928	34678	
1046	0	36920	33968	
1047	0	35268	32503	
1048	0	33044	31905	
1049	0	28512	31710	
1050	0	26250	31278	
1051	0	28448	31674	
1052	0	31410	31728	
1053	0	33274	31837	
1054	0	34456	32677	
1055	0	37314	33724	
1056	0	40028	33912	
1057	0	42160	33624	
1058	0	41120	33120	
1059	0	37968	32402	
1060	0	33164	32768	
1061	0	28192	33072	
1062	0	23770	33920	
1063	0	21689	34017	
1064	0	22776	33941	
1065	0	25192	33028	
1066	0	28530	31924	
1067	0	31148	31964	
1068	0	30888	31952	
1069	0	30144	31894	
1070	0	32242	32302	
1071	0	34450	32903	
1072	0	33668	33219	
1073	0	35008	32975	
1074	0	37426	32388	
1075	0	38332	32715	
1076	0	36228	32256	
1077	0	33321	32408	
1078	0	30368	32760	
1079	0	31206	32762	
1080	0	33900	33082	
1081	0	34452	33373	
1082	0	34488	32944	
1083	0	32484	32904	
1084	0	31224	32964	
1085	0	30297	32661	
1086	0	26284	32090	
1087	0	23792	31800	
1088	0	26056	31881	
1089	0	29828	32448	
1090	0	33464	33310	
1091	0	34376	33287	
1092	0	39400	33136	
1093	0	43104	32359	
1094	0	42244	31923	
1095	0	39520	31696	
1096	0	39634	31770	
1097	0	40392	31876	
1098	0	40921	31805	
1099	0	36636	32826	
1100	0	28523	33424	
1101	0	21832	33913	
1102	0	17074	33798	
1103	0	15672	34070	
1104	0	14402	33468	
1105	0	17892	33149	
1106	0	24754	33270	
1107	0	32656	33292	
1108	0	37776	32460	
1109	0	38944	31533	
1110	0	37533	32345	
1111	0	39096	33394	
1112	0	40568	33653	
1113	0	41522	33394	
1114	0	42732	33494	
1115	0	44840	32238	
1116	0	47380	30820	
1117	0	48774	30624	
1118	0	46152	31421	
1119	0	41472	32242	
1120	0	36140	32420	
1121	0	31592	32256	
1122	0	27176	31616	
1123	0	23408	31722	
1124	0	21392	32184	
1125	0	21422	33259	
1126	0	23270	34568	
1127	0	25604	35618	
1128	0	28200	35538	
1129	0	30696	34935	
1130	0	29750	34206	
1131	0	27772	33104	
1132	0	24768	32490	
1133	0	22648	32486	
1134	0	24434	32775	
1135	0	28053	32624	
1136	0	29813	33007	
1137	0	34248	32754	
1138	0	40916	32388	
1139	0	48272	31892	
1140	0	50218	31392	
1141	0	48472	31458	
1142	0	43884	31301	
1143	0	36308	31088	
1144	0	30428	30698	
1145	0	22018	30945	
1146	0	17468	31612	
1147	0	18822	32383	
1148	0	22194	32801	
1149	0	24460	33344	
1150	0	25853	33428	
1151	0	25043	33572	
1152	0	27246	33247	
1153	0	30196	33572	
1154	0	36172	33912	
1155	0	44360	33096	
1156	0	46524	32602	
1157	0	46584	33184	
1158	0	46124	33844	
1159	0	44228	34399	
1160	0	38968	33986	
1161	0	34612	33799	
1162	0	30752	33432	
1163	0	24368	32857	
1164	0	20448	32160	
1165	0	20164	31564	
1166	0	18449	30248	
1167	0	21937	29678	
1168	0	32300	30612	
1169	0	41424	31762	
1170	0	45920	32340	
1171	0	47658	33888	
1172	0	46016	34027	
1173	0	41056	33149	
1174	0	32650	33728	
1175	0	23973	34490	
1176	0	21602	34253	
1177	0	23287	33287	
1178	0	25478	31844	
1179	0	29038	31820	
1180	0	39864	31360	
1181	0	46660	31350	
1182	0	48748	32253	
1183	0	44738	31873	
1184	0	38336	31586	
1185	0	29856	32189	
1186	0	23612	33568	
1187	0	22784	34226	
1188	0	28539	35050	
1189	0	35354	34234	
1190	0	37216	32594	
1191	0	39756	31972	
1192	0	39760	32095	
1193	0	33832	31330	
1194	0	30537	31406	
1195	0	24976	32532	
1196	0	16754	33716	
1197	0	12354	34716	
1198	0	13113	34802	
1199	0	14582	33766	
1200	0	20576	32410	
1201	0	27752	31212	
1202	0	37362	30874	
1203	0	48944	30194	
1204	0	53112	29908	
1205	0	49660	31286	
1206	0	44236	32471	
1207	0	40228	33216	
1208	0	38969	33925	
1209	0	34184	34780	
1210	0	30066	35922	
1211	0	29092	36179	
1212	0	29000	36776	
1213	0	24708	35984	
1214	0	21864	34618	
1215	0	21754	34838	
1216	0	22118	34682	
1217	0	26069	31751	
1218	0	28038	30090	
1219	0	36532	29380	
1220	0	47098	29245	
1221	0	51348	29816	
1222	0	53432	30410	
1223	0	50612	31586	
1224	0	44560	33018	
1225	0	32405	33544	
1226	0	20792	32944	
1227	0	12868	33364	
1228	0	10850	33584	
1229	0	15968	34691	
1230	0	22468	34484	
1231	0	27072	34468	
1232	0	32584	32590	
1233	0	36220	32084	
1234	0	36144	32742	
1235	0	39025	32101	
1236	0	46068	31132	
1237	0	54346	30793	
1238	0	58212	31392	
1239	0	56376	32530	
1240	0	50720	32580	
1241	0	39584	30400	
1242	0	26149	30084	
1243	0	16048	31208	
1244	0	11006	32844	
1245	0	14342	33338	
1246	0	25586	33636	
1247	0	32714	32100	
1248	0	38280	30972	
1249	0	44698	31476	
1250	0	45568	32660	
1251	0	42424	34046	
1252	0	33330	35316	
1253	0	23425	35734	
1254	0	16658	34826	
1255	0	13069	35210	
1256	0	12496	36132	
1257	0	16688	35918	
1258	0	20790	32947	
1259	0	29828	30208	
1260	0	38648	30834	
1261	0	46264	32160	
1262	0	51984	31762	
1263	0	50600	31156	
1264	0	41576	31184	
1265	0	33200	31965	
1266	0	26466	32263	
1267	0	20684	32022	
1268	0	16937	31877	
1269	0	15332	31445	
1270	0	12480	32596	
1271	0	16052	33458	
1272	0	23176	34504	
1273	0	27989	36038	
1274	0	33610	36064	
1275	0	39980	34256	
1276	0	42250	32834	
1277	0	43668	32468	
1278	0	45752	33153	
1279	0	43828	32737	
1280	0	44018	31410	
1281	0	42300	31592	
1282	0	40796	32812	
1283	0	42196	32240	
1284	0	44013	31972	
1285	0	45008	31513	
1286	0	43608	30139	
1287	0	37234	30540	
1288	0	31846	30788	
1289	0	31346	31828	
1290	0	29910	31355	
1291	0	29874	30157	
1292	0	29660	32116	
1293	0	28568	33284	
1294	0	31464	35506	
1295	0	38564	36606	
1296	0	39418	37116	
1297	0	34170	36048	
1298	0	24018	33156	
1299	0	18756	31764	
1300	0	12126	31540	
1301	0	5772	31666	
1302	0	11878	31092	
1303	0	24370	31492	
1304	0	32100	32874	
1305	0	33160	33237	
1306	0	33012	33506	
1307	0	36068	32148	
1308	0	38052	30020	
1309	0	41288	28344	
1310	0	43616	29780	
1311	0	42084	32558	
1312	0	38818	34150	
1313	0	38274	34512	
1314	0	39226	34823	
1315	0	38808	35866	
1316	0	38260	34193	
1317	0	40192	32442	
1318	0	40120	31638	
1319	0	40154	31436	
1320	0	40840	31864	
1321	0	38454	32393	
1322	0	32740	33562	
1323	0	35442	33431	
1324	0	35328	32730	
1325	0	29473	32866	
1326	0	22166	33530	
1327	0	17438	34520	
1328	0	11836	34116	
1329	0	6632	33072	
1330	0	17092	30836	
1331	0	26608	30112	
1332	0	30194	30470	
1333	0	35000	30790	
1334	0	38688	30822	
1335	0	38912	30624	
1336	0	38666	31356	
1337	0	41168	32340	
1338	0	43706	33714	
1339	0	45888	37316	
1340	0	44354	37464	
1341	0	44820	36704	
1342	0	39598	35395	
1343	0	31040	33769	
1344	0	25864	33014	
1345	0	26144	29972	
1346	0	25704	29540	
1347	0	25546	30024	
1348	0	20678	31140	
1349	0	16404	31656	
1350	0	15672	32010	
1351	0	18828	31516	
1352	0	25488	32237	
1353	0	34336	33188	
1354	0	39226	33512	
1355	0	41706	33414	
1356	0	41071	33400	
1357	0	43394	32988	
1358	0	46952	32312	
1359	0	47602	32784	
1360	0	45128	32633	
1361	0	41520	32591	
1362	0	41188	33688	
1363	0	38808	34540	
1364	0	33930	35080	
1365	0	31792	33989	
1366	0	35394	33040	
1367	0	39474	32918	
1368	0	42148	32640	
1369	0	41212	30716	
1370	0	39644	29988	
1371	0	36728	30940	
1372	0	28682	31500	
1373	0	22684	32920	
1374	0	20806	34190	
1375	0	19846	34290	
1376	0	15047	35416	
1377	0	10288	32448	
1378	0	11181	31277	
1379	0	12629	32316	
1380	0	14584	32800	
1381	0	19088	32260	
1382	0	24400	32534	
1383	0	31328	33432	
1384	0	39440	34208	
1385	0	47032	33670	
1386	0	47164	32710	
1387	0	43884	32900	
1388	0	43288	33626	
1389	0	43906	32100	
1390	0	44841	30806	
1391	0	43448	31127	
1392	0	41776	32540	
1393	0	38784	33738	
1394	0	32748	32345	
1395	0	22834	30080	
1396	0	20230	30224	
1397	0	22473	31448	
1398	0	24988	33538	
1399	0	32032	34173	
1400	0	44352	33080	
1401	0	48160	31728	
1402	0	45720	29805	
1403	0	39659	30076	
1404	0	31944	32386	
1405	0	27220	32737	
1406	0	20589	33820	
1407	0	18030	34532	
1408	0	18385	35081	
1409	0	19448	34593	
1410	0	24378	34703	
1411	0	28282	33813	
1412	0	31356	32868	
1413	0	38096	32882	
1414	0	45700	33080	
1415	0	50780	32918	
1416	0	53512	32432	
1417	0	53634	32060	
1418	0	47728	32376	
1419	0	36820	33056	
1420	0	24568	33320	
1421	0	13515	33138	
1422	0	9032	32272	
1423	0	11041	32888	
1424	0	13602	32580	
1425	0	21292	32388	
1426	0	36256	32456	
1427	0	47224	32110	
1428	0	52082	30924	
1429	0	54216	30484	
1430	0	50866	32212	
1431	0	45141	33408	
1432	0	38730	32428	
1433	0	30348	32866	
1434	0	22776	32756	
1435	0	17238	31882	
1436	0	14602	30804	
1437	0	21950	30666	
1438	0	29252	31330	
1439	0	35218	32997	
1440	0	36612	34381	
1441	0	37974	33604	
1442	0	46104	32992	
1443	0	52952	33672	
1444	0	56148	35220	
1445	0	53884	36244	
1446	0	51296	35150	
1447	0	42544	34904	
1448	0	30962	33876	
1449	0	20862	32706	
1450	0	13992	32522	
1451	0	9956	32980	
1452	0	8256	31538	
1453	0	3811	29744	
1454	0	5476	29596	
1455	0	8964	30806	
1456	0	16952	30804	
1457	0	26044	31644	
1458	0	28994	31472	
1459	0	33972	32184	
1460	0	39424	32345	
1461	0	43145	32904	
1462	0	43740	34206	
1463	0	46280	34888	
1464	0	46388	35547	
1465	0	42196	33684	
1466	0	39128	32048	
1467	0	34476	31398	
1468	0	33224	30147	
1469	0	32344	29997	
1470	0	33268	31730	
1471	0	35550	33206	
1472	0	37088	34455	
1473	0	37844	34564	
1474	0	35462	34328	
1475	0	34028	33991	
1476	0	32848	32579	
1477	0	31424	31705	
1478	0	29536	32373	
1479	0	26528	33925	
1480	0	26992	34626	
1481	0	33632	32681	
1482	0	40290	30668	
1483	0	40632	29684	
1484	0	45780	30573	
1485	0	44724	32381	
1486	0	38540	34474	
1487	0	34333	35143	
1488	0	32292	34754	
1489	0	31680	33942	
1490	0	32404	33023	
1491	0	35988	32860	
1492	0	36968	33096	
1493	0	41626	33198	
1494	0	44038	32914	
1495	0	42312	32806	
1496	0	35408	31986	
1497	0	25384	31640	
1498	0	9449	31528	
1499	0	191	31980	
1500	0	2536	33872	
1501	0	6591	35092	
1502	0	10075	33582	
1503	0	13024	32934	
1504	0	15565	31760	
1505	0	29978	30932	
1506	0	38770	31048	
1507	0	41578	31428	
1508	0	45106	33144	
1509	0	48178	32768	
1510	0	49584	31960	
1511	0	47152	31688	
1512	0	42024	31514	
1513	0	42452	31190	
1514	0	40976	30319	
1515	0	41668	30860	
1516	0	43624	32924	
1517	0	44284	34369	
1518	0	45916	35186	
1519	0	47316	36658	
1520	0	45764	35636	
1521	0	39712	34001	
1522	0	30100	32128	
1523	0	22472	30292	
1524	0	17256	28764	
1525	0	14364	29510	
1526	0	19364	32761	
1527	0	23005	35638	
1528	0	26980	35346	
1529	0	36080	34192	
1530	0	41496	34713	
1531	0	41586	34495	
1532	0	37176	33516	
1533	0	35608	32494	
1534	0	33632	31402	
1535	0	26141	31870	
1536	0	18964	31968	
1537	0	14334	32247	
1538	0	18122	32352	
1539	0	25122	31847	
1540	0	30608	31296	
1541	0	41602	32412	
1542	0	43282	34392	
1543	0	41187	34805	
1544	0	40052	33116	
1545	0	38128	32327	
1546	0	35200	31714	
1547	0	31648	32786	
1548	0	26664	32050	
1549	0	23498	31047	
1550	0	24042	32495	
1551	0	25806	34354	
1552	0	27554	35373	
1553	0	31274	33995	
1554	0	33120	32672	
1555	0	36430	32602	
1556	0	38576	31794	
1557	0	40444	30131	
1558	0	38456	30168	
1559	0	35326	32176	
1560	0	35938	32519	
1561	0	37196	31878	
1562	0	37266	32207	
1563	0	35352	33014	
1564	0	34740	33995	
1565	0	34286	35301	
1566	0	32120	33676	
1567	0	30422	31957	
1568	0	29776	31086	
1569	0	29892	31852	
1570	0	30708	31998	
1571	0	34048	32414	
1572	0	37090	32937	
1573	0	39371	33501	
1574	0	42448	33540	
1575	0	49152	33168	
1576	0	43940	32720	
1577	0	39004	33248	
1578	0	30172	33024	
1579	0	23012	33326	
1580	0	25192	35759	
1581	0	34474	36320	
1582	0	41388	36132	
1583	0	39192	35104	
1584	0	32552	33102	
1585	0	27932	29808	
1586	0	21448	28496	
1587	0	9171	29192	
1588	0	4240	30628	
1589	0	9538	33177	
1590	0	14482	32180	
1591	0	19324	29798	
1592	0	21388	30068	
1593	0	21648	34054	
1594	0	23790	37040	
1595	0	33432	35268	
1596	0	41820	33088	
1597	0	45088	31613	
1598	0	46328	32397	
1599	0	50728	34784	
1600	0	52624	35120	
1601	0	54778	31580	
1602	0	53766	30343	
1603	0	52900	28982	
1604	0	46180	28704	
1605	0	37432	28138	
1606	0	34672	30845	
1607	0	35348	34562	
1608	0	36452	34600	
1609	0	31680	36978	
1610	0	23224	37624	
1611	0	15754	34810	
1612	0	8434	33458	
1613	0	7760	34190	
1614	0	9746	34140	
1615	0	14340	33243	
1616	0	21080	32064	
1617	0	30090	31272	
1618	0	44358	32112	
1619	0	57360	32512	
1620	0	64152	31560	
1621	0	60960	30576	
1622	0	57266	30322	
1623	0	45920	30690	
1624	0	25210	31326	
1625	0	15496	32352	
1626	0	10857	32589	
1627	0	11032	32584	
1628	0	12003	33218	
1629	0	13300	32420	
1630	0	17566	33190	
1631	0	26493	33208	
1632	0	35344	33792	
1633	0	41418	34432	
1634	0	42956	34178	
1635	0	43230	33864	
1636	0	50108	32620	
1637	0	50668	31216	
1638	0	46020	31131	
1639	0	43840	33354	
1640	0	44920	33866	
1641	0	42704	31410	
1642	0	34388	28984	
1643	0	35940	30360	
1644	0	38144	34054	
1645	0	38788	35380	
1646	0	32909	35102	
1647	0	24672	33844	
1648	0	18536	32576	
1649	0	13104	31960	
1650	0	12265	31124	
1651	0	17024	32357	
1652	0	19192	33552	
1653	0	24384	34268	
1654	0	39026	32556	
1655	0	44412	32856	
1656	0	40058	34260	
1657	0	33116	34304	
1658	0	26680	35888	
1659	0	20886	36240	
1660	0	21756	35474	
1661	0	22449	33778	
1662	0	27112	30744	
1663	0	29810	29607	
1664	0	37018	28804	
1665	0	42792	28054	
1666	0	39512	30497	
1667	0	36252	33605	
1668	0	34695	32903	
1669	0	34128	32149	
1670	0	34860	32206	
1671	0	40081	32986	
1672	0	47690	35093	
1673	0	52680	33740	
1674	0	55196	30510	
1675	0	53524	28256	
1676	0	48408	27443	
1677	0	44828	31257	
1678	0	37676	34544	
1679	0	27136	34164	
1680	0	22267	32788	
1681	0	19496	32455	
1682	0	24200	32284	
1683	0	26194	32534	
1684	0	24476	34480	
1685	0	21189	36598	
1686	0	16132	37328	
1687	0	9148	34784	
1688	0	6920	29168	
1689	0	10510	26921	
1690	0	32632	29336	
1691	0	47296	33704	
1692	0	58708	36736	
1693	0	61574	36440	
1694	0	55536	33726	
1695	0	46988	32410	
1696	0	31940	31248	
1697	0	17881	30794	
1698	0	11906	32728	
1699	0	9768	34249	
1700	0	10691	35676	
1701	0	10781	37584	
1702	0	12901	35017	
1703	0	18589	31806	
1704	0	23398	30960	
1705	0	28548	31444	
1706	0	34450	31858	
1707	0	48146	32216	
1708	0	58604	32340	
1709	0	61145	31194	
1710	0	54904	31090	
1711	0	45868	31376	
1712	0	39314	31797	
1713	0	38200	32256	
1714	0	43506	33402	
1715	0	40909	31536	
1716	0	36722	30186	
1717	0	33856	33040	
1718	0	34065	34799	
1719	0	38944	35388	
1720	0	43748	37602	
1721	0	41410	34448	
1722	0	38664	32336	
1723	0	34162	32457	
1724	0	28200	32740	
1725	0	26372	30988	
1726	0	25132	29123	
1727	0	22722	28807	
1728	0	23950	28783	
1729	0	26292	29955	
1730	0	28556	32842	
1731	0	24496	33380	
1732	0	18588	34328	
1733	0	11476	34872	
1734	0	9962	33914	
1735	0	11839	33789	
1736	0	14099	34172	
1737	0	18669	34376	
1738	0	28060	34652	
1739	0	37996	34482	
1740	0	49512	32952	
1741	0	58000	31901	
1742	0	58024	31708	
1743	0	50336	31738	
1744	0	41568	32220	
1745	0	40322	31751	
1746	0	39168	30864	
1747	0	40400	31222	
1748	0	42088	32350	
1749	0	46584	32564	
1750	0	50848	34827	
1751	0	48116	34762	
1752	0	41928	35060	
1753	0	31688	33468	
1754	0	19517	32792	
1755	0	9991	33240	
1756	0	5155	35586	
1757	0	4001	36096	
1758	0	5533	33666	
1759	0	9270	30348	
1760	0	18776	27796	
1761	0	31104	28738	
1762	0	39986	30411	
1763	0	44320	30060	
1764	0	43496	30876	
1765	0	42336	31056	
1766	0	38752	28544	
1767	0	33912	28346	
1768	0	32784	30894	
1769	0	41832	34216	
1770	0	54404	37124	
1771	0	59129	37014	
1772	0	56644	36204	
1773	0	53638	35074	
1774	0	34310	33984	
1775	0	26792	33220	
1776	0	21766	33204	
1777	0	17224	33208	
1778	0	11088	34346	
1779	0	8590	33276	
1780	0	11269	32365	
1781	0	15363	32424	
1782	0	17920	32516	
1783	0	21466	32519	
1784	0	27008	31529	
1785	0	33776	30420	
1786	0	44586	31416	
1787	0	50290	31776	
1788	0	49908	31936	
1789	0	48272	31879	
1790	0	46520	32668	
1791	0	45672	34956	
1792	0	45284	35267	
1793	0	40808	34729	
1794	0	34057	34328	
1795	0	25900	33556	
1796	0	24782	32230	
1797	0	30648	32348	
1798	0	27920	33626	
1799	0	23554	33138	
1800	0	22352	31936	
1801	0	24348	32363	
1802	0	30798	32222	
1803	0	37882	32308	
1804	0	50122	32672	
1805	0	58232	33328	
1806	0	56090	32339	
1807	0	53208	30276	
1808	0	48120	28724	
1809	0	26476	29658	
1810	0	18888	30084	
1811	0	14902	32036	
1812	0	10893	33640	
1813	0	11151	34838	
1814	0	17917	36058	
1815	0	19840	37040	
1816	0	17536	35756	
1817	0	22947	34587	
1818	0	25476	33427	
1819	0	27188	34302	
1820	0	35459	35556	
1821	0	43960	32656	
1822	0	44780	30057	
1823	0	41216	29438	
1824	0	35688	30166	
1825	0	30604	33338	
1826	0	28875	33380	
1827	0	29329	30567	
1828	0	29700	28770	
1829	0	28284	29648	
1830	0	29196	32950	
1831	0	33636	34376	
1832	0	36892	33787	
1833	0	39202	32785	
1834	0	45396	33340	
1835	0	43988	32939	
1836	0	36832	31756	
1837	0	32669	32792	
1838	0	38048	34340	
1839	0	40834	31382	
1840	0	39012	31063	
1841	0	37560	33948	
1842	0	38528	38240	
1843	0	39586	41588	
1844	0	37535	37992	
1845	0	31520	30484	
1846	0	21629	25880	
1847	0	17024	25549	
1848	0	21750	28186	
1849	0	28392	29904	
1850	0	31665	31672	
1851	0	27917	31588	
1852	0	27258	32796	
1853	0	28202	35658	
1854	0	26266	36442	
1855	0	24396	36112	
1856	0	23891	34540	
1857	0	28712	33346	
1858	0	31384	33396	
1859	0	31316	33006	
1860	0	32240	32038	
1861	0	32480	31288	
1862	0	33786	31810	
1863	0	41576	31696	
1864	0	42921	31382	
1865	0	43082	31918	
1866	0	40804	31881	
1867	0	38508	31698	
1868	0	39226	32289	
1869	0	45376	30960	
1870	0	49976	30308	
1871	0	45618	31176	
1872	0	39608	33529	
1873	0	33305	35070	
1874	0	27552	36338	
1875	0	30628	34624	
1876	0	33636	33610	
1877	0	30884	33102	
1878	0	24562	33692	
1879	0	17988	33456	
1880	0	14928	33116	
1881	0	17514	32330	
1882	0	31282	32392	
1883	0	46002	32842	
1884	0	51680	32720	
1885	0	47828	31672	
1886	0	40464	31777	
1887	0	32392	31840	
1888	0	22752	32664	
1889	0	15316	32184	
1890	0	11166	32184	
1891	0	12450	33076	
1892	0	16428	32241	
1893	0	23556	32420	
1894	0	35402	33978	
1895	0	41322	33808	
1896	0	44956	32136	
1897	0	51642	31688	
1898	0	58368	32408	
1899	0	54760	34930	
1900	0	44728	34260	
1901	0	30937	32920	
1902	0	19848	32018	
1903	0	13900	32252	
1904	0	12502	33240	
1905	0	19226	33312	
1906	0	27288	32519	
1907	0	26964	31969	
1908	0	31873	31848	
1909	0	36364	33542	
1910	0	35074	33799	
1911	0	34888	33434	
1912	0	29524	33732	
1913	0	22385	33828	
1914	0	19266	30714	
1915	0	21257	29762	
1916	0	26916	30158	
1917	0	38304	30500	
1918	0	53464	32320	
1919	0	59516	32440	
1920	0	57668	32004	
1921	0	53592	33092	
1922	0	47346	33872	
1923	0	47716	34438	
1924	0	44896	32596	
1925	0	36104	32328	
1926	0	29097	32820	
1927	0	29360	32894	
1928	0	26908	34498	
1929	0	21952	35080	
1930	0	17341	33924	
1931	0	14318	33136	
1932	0	11654	31936	
1933	0	9426	29128	
1934	0	10828	30215	
1935	0	18166	31644	
1936	0	24948	32723	
1937	0	31608	33066	
1938	0	39356	33244	
1939	0	46464	33408	
1940	0	49776	33835	
1941	0	49618	33774	
1942	0	44422	32754	
1943	0	37716	32420	
1944	0	31548	32586	
1945	0	25672	32824	
1946	0	21931	31913	
1947	0	25572	32078	
1948	0	32982	32980	
1949	0	40480	33400	
1950	0	46892	32752	
1951	0	54016	31840	
1952	0	57056	31352	
1953	0	54920	30944	
1954	0	52176	31556	
1955	0	35904	32488	
1956	0	14198	33330	
1957	0	0	32970	
1958	0	0	33348	
1959	0	3687	35314	
1960	0	7647	33085	
1961	0	13598	31528	
1962	0	26352	31190	
1963	0	35360	32448	
1964	0	42764	34192	
1965	0	43156	35035	
1966	0	41068	33860	
1967	0	41872	32562	
1968	0	44808	33146	
1969	0	48924	33410	
1970	0	55016	33569	
1971	0	51656	33982	
1972	0	43250	32801	
1973	0	35792	32108	
1974	0	28764	31800	
1975	0	22008	33002	
1976	0	18058	33208	
1977	0	19208	31893	
1978	0	20820	31329	
1979	0	27956	31772	
1980	0	37058	32008	
1981	0	40504	31438	
1982	0	46024	29936	
1983	0	54360	30816	
1984	0	55408	32100	
1985	0	46628	33576	
1986	0	32288	34561	
1987	0	19408	33824	
1988	0	11492	32260	
1989	0	6986	31968	
1990	0	6392	31176	
1991	0	13916	32664	
1992	0	33080	36516	
1993	0	47932	38752	
1994	0	49128	35104	
1995	0	50656	32426	
1996	0	50556	31512	
1997	0	46404	29749	
1998	0	36448	27290	
1999	0	23202	28300	
2000	0	11297	32756	
2001	0	2968	36824	
2002	0	5656	37449	
2003	0	9203	35340	
2004	0	12293	31630	
2005	0	32858	29128	
2006	0	52496	27460	
2007	0	63072	29116	
2008	0	63672	33152	
2009	0	56580	36118	
2010	0	45520	33467	
2011	0	36118	31884	
2012	0	32068	34032	
2013	0	22561	37160	
2014	0	11730	36920	
2015	0	4756	32962	
2016	0	7190	31630	
2017	0	19180	30730	
2018	0	33584	30560	
2019	0	45684	31168	
2020	0	49564	33384	
2021	0	56432	35248	
2022	0	56992	34864	
2023	0	53744	32262	
2024	0	48200	30388	
2025	0	41832	31524	
2026	0	35594	33068	
2027	0	28792	33708	
2028	0	19646	36404	
2029	0	15008	34616	
2030	0	14736	27692	
2031	0	14658	25562	
2032	0	16626	28246	
2033	0	15664	30490	
2034	0	18714	34826	
2035	0	26976	37370	
2036	0	28376	37347	
2037	0	37092	33992	
2038	0	45536	31240	
2039	0	53580	30272	
2040	0	56237	31136	
2041	0	51420	31239	
2042	0	44027	31876	
2043	0	36987	32888	
2044	0	29976	31023	
2045	0	21108	31440	
2046	0	13188	34120	
2047	0	10823	35402	
2048	0	13042	35920	
2049	0	19768	37937	
2050	0	28081	37803	
2051	0	36538	36904	
2052	0	43178	35554	
2053	0	42336	34307	
2054	0	36772	34110	
2055	0	38236	29952	
2056	0	37026	23114	
2057	0	33592	24952	
2058	0	37540	29088	
2059	0	46202	31688	
2060	0	55808	34388	
2061	0	57228	32638	
2062	0	54542	31926	
2063	0	51816	34101	
2064	0	49410	31108	
2065	0	23760	30509	
2066	0	6786	28796	
2067	0	1032	28057	
2068	0	2315	29018	
2069	0	6755	31388	
2070	0	14462	36114	
2071	0	20490	40388	
2072	0	28016	40884	
2073	0	30632	36920	
2074	0	32528	32478	
2075	0	36196	32237	
2076	0	35592	33018	
2077	0	32972	32617	
2078	0	33430	34568	
2079	0	38328	32512	
2080	0	46512	30912	
2081	0	53352	30120	
2082	0	57408	31900	
2083	0	57808	32580	
2084	0	53624	32960	
2085	0	46300	34016	
2086	0	36632	34592	
2087	0	33324	32288	
2088	0	36488	30054	
2089	0	29316	30792	
2090	0	17729	34668	
2091	0	8244	34570	
2092	0	7052	33524	
2093	0	15492	33346	
2094	0	22436	31649	
2095	0	22539	34329	
2096	0	19066	34928	
2097	0	16508	33376	
2098	0	18394	30026	
2099	0	21504	28223	
2100	0	29756	30752	
2101	0	45850	31290	
2102	0	57096	31384	
2103	0	57832	31618	
2104	0	52544	32594	
2105	0	46410	34409	
2106	0	44280	37240	
2107	0	41529	35455	
2108	0	35444	34385	
2109	0	30676	33428	
2110	0	27741	34729	
2111	0	26468	28466	
2112	0	25968	24722	
2113	0	24686	26776	
2114	0	26485	33024	
2115	0	29856	36532	
2116	0	29480	38492	
2117	0	33708	36528	
2118	0	41056	30924	
2119	0	41237	30951	
2120	0	37592	33692	
2121	0	33330	35928	
2122	0	25924	36064	
2123	0	20271	36268	
2124	0	22744	34183	
2125	0	27284	29804	
2126	0	30101	28117	
2127	0	26892	28678	
2128	0	27531	30941	
2129	0	32682	35948	
2130	0	38620	40110	
2131	0	38696	30276	
2132	0	33552	26440	
2133	0	31620	29920	
2134	0	46856	32920	
2135	0	53856	35632	
2136	0	47224	37780	
2137	0	40788	32984	
2138	0	39726	30697	
2139	0	33858	28864	
2140	0	24936	23316	
2141	0	21844	23928	
2142	0	16291	28724	
2143	0	12480	37792	
2144	0	13641	44416	
2145	0	20934	42208	
2146	0	29776	35924	
2147	0	31904	31232	
2148	0	29078	30682	
2149	0	26028	32272	
2150	0	29948	32882	
2151	0	38084	30569	
2152	0	45028	30922	
2153	0	51776	33362	
2154	0	54778	34562	
2155	0	50520	36072	
2156	0	42092	34324	
2157	0	34610	32665	
2158	0	23160	28830	
2159	0	13760	21826	
2160	0	14556	20096	
2161	0	20220	25766	
2162	0	29682	35116	
2163	0	38840	44108	
2164	0	52608	48784	
2165	0	59928	43584	
2166	0	57416	30864	
2167	0	54314	28744	
2168	0	51564	32678	
2169	0	22324	32608	
2170	0	8896	28864	
2171	0	0	29764	
2172	0	1604	36152	
2173	0	5819	41808	
2174	0	9428	32400	
2175	0	12490	25946	
2176	0	15094	30001	
2177	0	40109	38448	
2178	0	61020	41148	
2179	0	65464	31068	
2180	0	64448	18508	
2181	0	60204	20682	
2182	0	47178	28476	
2183	0	19429	32624	
2184	0	6483	34420	
2185	0	3786	37376	
2186	0	7240	34340	
2187	0	10604	29068	
2188	0	13488	27628	
2189	0	29878	34352	
2190	0	41348	40088	
2191	0	57228	42968	
2192	0	65452	39430	
2193	0	63938	36932	
2194	0	59924	33388	
2195	0	56327	32504	
2196	0	53284	30556	
2197	0	50664	28667	
2198	0	33756	24640	
2199	0	12670	24736	
2200	0	2662	20090	
2201	0	2773	22188	
2202	0	5056	32504	
2203	0	14208	42508	
2204	0	26656	46240	
2205	0	37474	42777	
2206	0	46688	34240	
2207	0	54266	28466	
2208	0	50916	24721	
2209	0	47572	28438	
2210	0	37926	36456	
2211	0	27620	40132	
2212	0	16497	39600	
2213	0	10886	40496	
2214	0	13252	37644	
2215	0	18872	30705	
2216	0	23032	28248	
2217	0	26496	30836	
2218	0	39514	33626	
2219	0	45632	32452	
2220	0	44700	30114	
2221	0	37752	29152	
2222	0	36688	29340	
2223	0	43520	25192	
2224	0	41482	27470	
2225	0	39640	30332	
2226	0	41364	36382	
2227	0	34496	42884	
2228	0	27608	38274	
2229	0	24820	31972	
2230	0	24714	35776	
2231	0	23097	38360	
2232	0	19696	36126	
2233	0	20410	29418	
2234	0	26286	27343	
2235	0	29376	30735	
2236	0	31816	29873	
2237	0	33442	24836	
2238	0	38328	26540	
2239	0	48896	30120	
2240	0	60392	35068	
2241	0	58994	37282	
2242	0	55784	36616	
2243	0	36060	32728	
2244	0	27240	30775	
2245	0	30356	31506	
2246	0	31332	31578	
2247	0	31292	32423	
2248	0	31430	30716	
2249	0	22740	28132	
2250	0	13176	34688	
2251	0	8700	39230	
2252	0	10242	41200	
2253	0	11874	42196	
2254	0	10742	38868	
2255	0	13203	36448	
2256	0	19376	33440	
2257	0	31168	29556	
2258	0	41136	24790	
2259	0	53734	22688	
2260	0	59624	26560	
2261	0	55384	30624	
2262	0	58456	26830	
2263	0	59662	27105	
2264	0	56620	32958	
2265	0	53584	45944	
2266	0	44178	45962	
2267	0	31318	39612	
2268	0	28944	28030	
2269	0	22212	23372	
2270	0	9208	27325	
2271	0	4746	34613	
2272	0	10724	30490	
2273	0	15276	22080	
2274	0	19789	25625	
2275	0	25512	35616	
2276	0	29408	40097	
2277	0	28601	40632	
2278	0	32632	41952	
2279	0	40224	42800	
2280	0	42580	41367	
2281	0	38672	31980	
2282	0	37928	28484	
2283	0	42984	28568	
2284	0	42184	27392	
2285	0	37378	25400	
2286	0	36196	23296	
2287	0	28565	24642	
2288	0	23056	32020	
2289	0	25100	33835	
2290	0	27844	37232	
2291	0	32092	39864	
2292	0	42642	40404	
2293	0	51536	36680	
2294	0	53664	33900	
2295	0	45592	32356	
2296	0	40057	29276	
2297	0	30913	24008	
2298	0	18572	26304	
2299	0	11108	39816	
2300	0	9142	41692	
2301	0	7833	29053	
2302	0	9041	25736	
2303	0	11985	25300	
2304	0	22186	26516	
2305	0	34100	34020	
2306	0	45640	40724	
2307	0	58344	43696	
2308	0	65464	43650	
2309	0	62784	40730	
2310	0	58796	35684	
2311	0	55377	26376	
2312	0	38496	26768	
2313	0	28784	25772	
2314	0	26352	30162	
2315	0	26148	39568	
2316	0	25120	37242	
2317	0	17278	23068	
2318	0	9843	18756	
2319	0	8104	29436	
2320	0	13180	39144	
2321	0	31576	37344	
2322	0	37816	31648	
2323	0	40801	31396	
2324	0	42044	32642	
2325	0	43368	33840	
2326	0	56260	33632	
2327	0	54276	29464	
2328	0	42900	29902	
2329	0	29258	26840	
2330	0	17712	27996	
2331	0	13680	34232	
2332	0	11433	38328	
2333	0	7122	44356	
2334	0	8900	39144	
2335	0	11908	28692	
2336	0	14590	26380	
2337	0	16910	24974	
2338	0	42756	29800	
2339	0	61636	38040	
2340	0	65472	37940	
2341	0	65474	38682	
2342	0	61084	40046	
2343	0	57288	29848	
2344	0	45896	29860	
2345	0	44402	33024	
2346	0	40692	33816	
2347	0	25876	32452	
2348	0	7356	38964	
2349	0	0	40322	
2350	0	10592	36340	
2351	0	17105	28989	
2352	0	20952	23413	
2353	0	23109	25503	
2354	0	24014	27206	
2355	0	26204	34248	
2356	0	27640	33332	
2357	0	31723	30144	
2358	0	40360	34256	
2359	0	52452	34848	
2360	0	60000	32016	
2361	0	61272	32544	
2362	0	57928	32106	
2363	0	54688	31420	
2364	0	39648	30808	
2365	0	21202	34108	
2366	0	12264	35740	
2367	0	9370	36880	
2368	0	6138	27968	
2369	0	9136	22785	
2370	0	29688	33248	
2371	0	46200	42876	
2372	0	47224	39448	
2373	0	46616	33980	
2374	0	42220	36284	
2375	0	36470	36076	
2376	0	32690	29424	
2377	0	27496	25904	
2378	0	23708	26200	
2379	0	21328	32640	
2380	0	19835	36089	
2381	0	18996	34912	
2382	0	18114	27910	
2383	0	21044	27778	
2384	0	28896	30344	
2385	0	36228	34756	
2386	0	36220	32708	
2387	0	36866	31189	
2388	0	43912	31596	
2389	0	49668	31664	
2390	0	48968	34945	
2391	0	41986	36536	
2392	0	34432	32606	
2393	0	32030	30501	
2394	0	31748	36256	
2395	0	33472	46488	
2396	0	37756	40556	
2397	0	45560	32864	
2398	0	46176	27372	
2399	0	40010	31516	
2400	0	31248	28080	
2401	0	23297	23324	
2402	0	17456	28404	
2403	0	21086	30676	
2404	0	33648	29560	
2405	0	41188	23264	
2406	0	42560	26145	
2407	0	37368	34522	
2408	0	24498	43236	
2409	0	19794	39115	
2410	0	23976	33695	
2411	0	21601	33706	
2412	0	20252	35011	
2413	0	27266	35095	
2414	0	31609	33159	
2415	0	34848	34388	
2416	0	42200	39650	
2417	0	44192	37676	
2418	0	41328	30794	
2419	0	33294	28628	
2420	0	24548	30144	
2421	0	18016	30386	
2422	0	18548	32479	
2423	0	22561	35070	
2424	0	23644	38068	
2425	0	29496	39568	
2426	0	44280	36312	
2427	0	57124	31136	
2428	0	61684	28285	
2429	0	59520	28825	
2430	0	56168	31816	
2431	0	53152	30204	
2432	0	30384	24845	
2433	0	9032	24320	
2434	0	0	31988	
2435	0	1830	39568	
2436	0	6061	37988	
2437	0	9636	36792	
2438	0	38708	41152	
2439	0	58896	43496	
2440	0	63928	31160	
2441	0	60608	18578	
2442	0	56966	19977	
2443	0	53816	24714	
2444	0	35740	30072	
2445	0	17329	33900	
2446	0	3244	36850	
2447	0	482	34692	
2448	0	4235	37868	
2449	0	8070	38344	
2450	0	11332	37714	
2451	0	14108	32344	
2452	0	29170	17370	
2453	0	48578	21760	
2454	0	62896	34818	
2455	0	65464	44536	
2456	0	63146	44484	
2457	0	59060	40680	
2458	0	55592	39495	
2459	0	52651	35458	
2460	0	50096	31114	
2461	0	25664	22912	
2462	0	16660	20178	
2463	0	16440	22546	
2464	0	17440	28928	
2465	0	14166	32088	
2466	0	9282	32592	
2467	0	8917	34968	
2468	0	12432	36736	
2469	0	20944	43936	
2470	0	28166	44834	
2471	0	32380	44901	
2472	0	33720	39372	
2473	0	38265	34476	
2474	0	39016	32878	
2475	0	40422	28056	
2476	0	45932	23126	
2477	0	49216	18384	
2478	0	46912	21447	
2479	0	42388	23338	
2480	0	41920	32484	
2481	0	39826	40772	
2482	0	30240	41528	
2483	0	23470	34404	
2484	0	17048	30432	
2485	0	17394	31037	
2486	0	30480	29500	
2487	0	49432	30752	
2488	0	58848	34312	
2489	0	56928	29592	
2490	0	53938	27524	
2491	0	41114	31374	
2492	0	17226	39732	
2493	0	0	42000	
2494	0	0	32172	
2495	0	4250	27074	
2496	0	8118	32666	
2497	0	11371	37556	
2498	0	20340	39200	
2499	0	43584	34908	
2500	0	53312	32973	
2501	0	59868	27812	
2502	0	63024	28456	
2503	0	60248	30688	
2504	0	56724	32568	
2505	0	53626	34570	
2506	0	50952	32709	
2507	0	48649	35352	
2508	0	30144	36272	
2509	0	12564	36568	
2510	0	6040	35788	
2511	0	6326	38504	
2512	0	7032	33176	
2513	0	7640	26648	
2514	0	11412	20254	
2515	0	17388	22856	
2516	0	18946	29520	
2517	0	19469	36053	
2518	0	25130	34956	
2519	0	32502	30960	
2520	0	39824	33448	
2521	0	46688	34361	
2522	0	51048	36041	
2523	0	55012	37409	
2524	0	57114	32170	
2525	0	54791	27968	
2526	0	47942	24870	
2527	0	37912	28189	
2528	0	29084	35540	
2529	0	25154	35991	
2530	0	24532	39696	
2531	0	29600	43449	
2532	0	40724	47696	
2533	0	47456	38920	
2534	0	49522	28000	
2535	0	44376	25838	
2536	0	33828	28270	
2537	0	23888	27524	
2538	0	14480	27744	
2539	0	9150	29984	
2540	0	11682	29108	
2541	0	20564	29782	
2542	0	31888	29466	
2543	0	36376	28598	
2544	0	29884	33104	
2545	0	22380	37816	
2546	0	21944	41469	
2547	0	23972	36410	
2548	0	27376	30752	
2549	0	33458	28394	
2550	0	41656	29764	
2551	0	46972	31088	
2552	0	46336	33760	
2553	0	44264	35728	
2554	0	42240	39282	
2555	0	39984	39559	
2556	0	37248	36466	
2557	0	32988	31870	
2558	0	31437	32214	
2559	0	32632	34220	
2560	0	32032	29968	
2561	0	28656	31353	
2562	0	27020	34164	
2563	0	22722	33296	
2564	0	20480	29268	
2565	0	24296	28896	
2566	0	32200	26312	
2567	0	41612	28569	
2568	0	48720	33548	
2569	0	48842	35927	
2570	0	41856	33963	
2571	0	31008	30942	
2572	0	19016	31328	
2573	0	7887	32288	
2574	0	7140	31109	
2575	0	21872	30970	
2576	0	36112	33936	
2577	0	46346	34864	
2578	0	52528	33604	
2579	0	55618	32829	
2580	0	55624	32728	
2581	0	49442	33582	
2582	0	37904	33925	
2583	0	32509	33634	
2584	0	29724	31804	
2585	0	27396	31279	
2586	0	24642	31785	
2587	0	26018	32126	
2588	0	26988	30407	
2589	0	27696	31106	
2590	0	28844	32332	
2591	0	30356	32635	
2592	0	29520	33839	
2593	0	29356	35384	
2594	0	29813	32340	
2595	0	25808	30640	
2596	0	23352	32984	
2597	0	25200	32992	
2598	0	31338	32248	
2599	0	37272	33742	
2600	0	38512	35207	
2601	0	32996	34481	
2602	0	24232	31940	
2603	0	22200	31733	
2604	0	20586	34352	
2605	0	21864	31829	
2606	0	29104	32196	
2607	0	38348	33666	
2608	0	45632	33418	
2609	0	49780	31880	
2610	0	49192	31519	
2611	0	46192	33891	
2612	0	41312	33203	
2613	0	33845	33277	
2614	0	29253	34264	
2615	0	26500	32950	
2616	0	22850	32216	
2617	0	23212	32344	
2618	0	29996	30726	
2619	0	33712	32428	
2620	0	37612	36724	
2621	0	43024	39344	
2622	0	46112	34046	
2623	0	42824	32034	
2624	0	35346	34004	
2625	0	28892	31090	
2626	0	27290	24543	
2627	0	27148	26848	
2628	0	23784	27692	
2629	0	17106	28792	
2630	0	17678	34265	
2631	0	27168	36802	
2632	0	35952	35832	
2633	0	39772	35077	
2634	0	38928	35474	
2635	0	37712	35513	
2636	0	40072	35088	
2637	0	42452	33450	
2638	0	42924	31160	
2639	0	41826	31060	
2640	0	40482	31490	
2641	0	39416	32461	
2642	0	34920	32736	
2643	0	25822	33208	
2644	0	16900	32000	
2645	0	17277	29988	
2646	0	22560	27217	
2647	0	27100	28402	
2648	0	30180	29311	
2649	0	32124	32205	
2650	0	30474	34107	
2651	0	30776	33796	
2652	0	33738	32248	
2653	0	34371	31756	
2654	0	36600	33794	
2655	0	39264	38008	
2656	0	40864	40468	
2657	0	40966	40071	
2658	0	37484	38875	
2659	0	28716	37427	
2660	0	22353	31504	
2661	0	21081	27044	
2662	0	24804	28157	
2663	0	34576	29946	
2664	0	42640	31720	
2665	0	49332	31816	
2666	0	51228	30354	
2667	0	46684	29182	
2668	0	37068	31798	
2669	0	23854	32520	
2670	0	11733	30561	
2671	0	11540	33322	
2672	0	25670	35960	
2673	0	37050	34488	
2674	0	37758	33058	
2675	0	33892	32116	
2676	0	29921	30884	
2677	0	27341	30144	
2678	0	26274	29550	
2679	0	27928	32000	
2680	0	30632	35362	
2681	0	34368	36163	
2682	0	39330	36298	
2683	0	41476	34332	
2684	0	36914	31470	
2685	0	29320	30556	
2686	0	28125	31812	
2687	0	31024	33240	
2688	0	34360	33765	
2689	0	35592	32067	
2690	0	34529	32071	
2691	0	32344	34144	
2692	0	36224	33926	
2693	0	41912	31184	
2694	0	47016	30452	
2695	0	48120	34589	
2696	0	41472	37656	
2697	0	27910	37408	
2698	0	11194	33346	
2699	0	5728	31460	
2700	0	10244	31842	
2701	0	23168	29609	
2702	0	37276	28568	
2703	0	42116	26988	
2704	0	43264	30688	
2705	0	42504	34484	
2706	0	35256	34380	
2707	0	28720	33884	
2708	0	26016	32492	
2709	0	28176	32418	
2710	0	30136	33047	
2711	0	31672	33070	
2712	0	35232	31952	
2713	0	36880	32170	
2714	0	33944	34289	
2715	0	33192	33665	
2716	0	30660	35666	
2717	0	33760	35474	
2718	0	42048	34652	
2719	0	51220	32352	
2720	0	56800	30858	
2721	0	55264	30752	
2722	0	52536	31180	
2723	0	30666	28778	
2724	0	13860	27338	
2725	0	4750	29220	
2726	0	1471	32508	
2727	0	5224	37161	
2728	0	11080	38586	
2729	0	19050	32000	
2730	0	32045	33232	
2731	0	45024	40908	
2732	0	50772	44312	
2733	0	50832	34024	
2734	0	43593	27038	
2735	0	32504	25072	
2736	0	26976	27233	
2737	0	29662	29424	
2738	0	37508	30602	
2739	0	43888	32288	
2740	0	46450	34216	
2741	0	45008	34896	
2742	0	39448	34117	
2743	0	29720	32320	
2744	0	21088	33968	
2745	0	20260	34172	
2746	0	18762	33248	
2747	0	21984	31350	
2748	0	34272	31068	
2749	0	44762	32324	
2750	0	44868	30447	
2751	0	40124	30656	
2752	0	33932	32661	
2753	0	28316	32762	
2754	0	21360	29028	
2755	0	15458	30672	
2756	0	17563	35100	
2757	0	24460	36526	
2758	0	33260	36800	
2759	0	44000	39472	
2760	0	52426	40160	
2761	0	55584	33712	
2762	0	49872	27881	
2763	0	41467	28510	
2764	0	34492	30858	
2765	0	23288	31748	
2766	0	12498	31232	
2767	0	7454	31590	
2768	0	11832	30245	
2769	0	20096	28683	
2770	0	27225	30402	
2771	0	35210	32139	
2772	0	41816	33457	
2773	0	47304	35156	
2774	0	48962	37137	
2775	0	49362	35144	
2776	0	45768	32874	
2777	0	38604	28400	
2778	0	30354	27472	
2779	0	28336	31520	
2780	0	32128	40120	
2781	0	33075	40703	
2782	0	27364	36856	
2783	0	20753	33912	
2784	0	24032	33682	
2785	0	28408	31355	
2786	0	27852	30331	
2787	0	27266	32388	
2788	0	27723	33223	
2789	0	30108	31172	
2790	0	35200	31154	
2791	0	41216	33296	
2792	0	44096	32608	
2793	0	46816	30396	
2794	0	48072	32108	
2795	0	44280	36568	
2796	0	40920	39512	
2797	0	37920	35272	
2798	0	33060	33132	
2799	0	26698	26458	
2800	0	20352	21986	
2801	0	11253	26888	
2802	0	8793	29489	
2803	0	16738	29273	
2804	0	23998	32056	
2805	0	30078	33984	
2806	0	38720	31852	
2807	0	47616	31264	
2808	0	49064	34089	
2809	0	41912	36084	
2810	0	33586	37476	
2811	0	22080	39008	
2812	0	15336	36946	
2813	0	26129	30928	
2814	0	40472	29352	
2815	0	46688	31432	
2816	0	45730	34260	
2817	0	40297	33896	
2818	0	29980	31746	
2819	0	23820	32065	
2820	0	26700	33821	
2821	0	30360	32720	
2822	0	35688	32095	
2823	0	41888	32866	
2824	0	44772	31936	
2825	0	43896	30932	
2826	0	39276	29065	
2827	0	29776	30140	
2828	0	26733	32811	
2829	0	32136	33266	
2830	0	34708	33191	
2831	0	34074	33493	
2832	0	34976	35836	
2833	0	32865	34273	
2834	0	27400	30274	
2835	0	23882	30843	
2836	0	22472	32804	
2837	0	23233	34568	
2838	0	25922	36136	
2839	0	29802	36522	
2840	0	27360	36960	
2841	0	24953	35846	
2842	0	32660	31864	
2843	0	39004	32845	
2844	0	37292	36794	
2845	0	33824	37366	
2846	0	26624	30300	
2847	0	22209	25864	
2848	0	20094	27288	
2849	0	21717	29400	
2850	0	28856	30944	
2851	0	36354	32728	
2852	0	42170	32848	
2853	0	44344	32846	
2854	0	43600	32370	
2855	0	42002	33108	
2856	0	43264	32733	
2857	0	43984	33974	
2858	0	43102	32548	
2859	0	43163	31356	
2860	0	43684	29816	
2861	0	43856	30635	
2862	0	40057	32762	
2863	0	31140	34642	
2864	0	18469	34310	
2865	0	10587	32992	
2866	0	8181	31579	
2867	0	17776	34218	
2868	0	36352	35726	
2869	0	48808	33346	
2870	0	52093	30576	
2871	0	45612	31646	
2872	0	31140	35322	
2873	0	17504	35552	
2874	0	5608	31900	
2875	0	6059	31026	
2876	0	9406	28425	
2877	0	28496	30236	
2878	0	43216	32528	
2879	0	52036	32120	
2880	0	52970	33433	
2881	0	48706	35451	
2882	0	42732	32508	
2883	0	36509	32486	
2884	0	33790	37944	
2885	0	33088	39378	
2886	0	36540	34912	
2887	0	39120	30184	
2888	0	39260	24955	
2889	0	39148	24042	
2890	0	36304	28515	
2891	0	32692	30040	
2892	0	26076	29890	
2893	0	18176	31552	
2894	0	16964	35082	
2895	0	17440	37034	
2896	0	22180	36638	
2897	0	28204	37884	
2898	0	28995	37551	
2899	0	29608	34307	
2900	0	29436	32655	
2901	0	30928	32950	
2902	0	35370	33676	
2903	0	38224	34840	
2904	0	40196	32120	
2905	0	41270	30727	
2906	0	36668	30246	
2907	0	29292	29036	
2908	0	23812	30890	
2909	0	25440	32002	
2910	0	32424	31947	
2911	0	39760	32172	
2912	0	45556	33278	
2913	0	48840	34594	
2914	0	48040	33862	
2915	0	45850	32955	
2916	0	45704	33799	
2917	0	42116	34194	
2918	0	34112	33228	
2919	0	24536	32244	
2920	0	16556	30714	
2921	0	9861	29696	
2922	0	7758	30298	
2923	0	15520	32992	
2924	0	25132	35402	
2925	0	30424	36298	
2926	0	35016	36516	
2927	0	39682	32122	
2928	0	42488	29936	
2929	0	45192	29525	
2930	0	46920	30794	
2931	0	43654	32674	
2932	0	40912	36452	
2933	0	35328	33645	
2934	0	26748	28508	
2935	0	16996	28784	
2936	0	11656	33812	
2937	0	15321	38291	
2938	0	24702	32024	
2939	0	36416	26506	
2940	0	44696	27232	
2941	0	47893	29548	
2942	0	47856	32800	
2943	0	50248	36192	
2944	0	49916	34573	
2945	0	43526	36016	
2946	0	36556	36704	
2947	0	30052	35394	
2948	0	22252	34432	
2949	0	17508	33000	
2950	0	17260	33688	
2951	0	13920	37588	
2952	0	13996	38296	
2953	0	20064	32400	
2954	0	29282	29162	
2955	0	35426	28472	
2956	0	39008	30009	
2957	0	39752	30765	
2958	0	37998	29600	
2959	0	34157	32573	
2960	0	31382	35292	
2961	0	31452	31058	
2962	0	33482	25761	
2963	0	31856	33812	
2964	0	31652	42714	
2965	0	33696	40199	
2966	0	39508	32608	
2967	0	48316	26164	
2968	0	52472	27778	
2969	0	51280	29922	
2970	0	44956	31346	
2971	0	36132	32592	
2972	0	24804	32280	
2973	0	12734	32688	
2974	0	7412	31228	
2975	0	13276	31930	
2976	0	22148	33120	
2977	0	33360	35084	
2978	0	43762	36546	
2979	0	48352	35828	
2980	0	48720	34423	
2981	0	44914	31260	
2982	0	34596	31192	
2983	0	26106	30688	
2984	0	23944	32420	
2985	0	28128	31160	
2986	0	35820	31028	
2987	0	40728	32186	
2988	0	46026	30848	
2989	0	49560	31164	
2990	0	50732	32548	
2991	0	46178	32804	
2992	0	34064	32540	
2993	0	23768	32688	
2994	0	14402	35584	
2995	0	3585	37640	
2996	0	1254	41276	
2997	0	5226	38596	
2998	0	8899	33453	
2999	0	12036	30372	
3000	0	14712	30656	
3001	0	29477	29958	
3002	0	42873	26504	
3003	0	48772	27400	
3004	0	51140	32642	
3005	0	50996	33852	
3006	0	50333	35247	
3007	0	47384	36486	
3008	0	46384	35451	
3009	0	47240	33370	
3010	0	46146	30941	
3011	0	41248	30676	
3012	0	34544	30366	
3013	0	28784	30608	
3014	0	24896	31520	
3015	0	21124	32290	
3016	0	20496	33604	
3017	0	20985	35442	
3018	0	27256	32754	
3019	0	35904	31954	
3020	0	40092	33580	
3021	0	39192	33961	
3022	0	34636	33738	
3023	0	29024	32368	
3024	0	22682	31854	
3025	0	17908	31922	
3026	0	18152	32635	
3027	0	24552	33410	
3028	0	30854	33712	
3029	0	34976	34185	
3030	0	39620	33864	
3031	0	43368	31634	
3032	0	45152	30684	
3033	0	44402	30922	
3034	0	45340	31993	
3035	0	45674	34397	
3036	0	42825	34810	
3037	0	37944	33111	
3038	0	35502	32478	
3039	0	31498	34930	
3040	0	27792	34389	
3041	0	28056	30589	
3042	0	29772	28213	
3043	0	32004	30194	
3044	0	36528	30840	
3045	0	37996	31202	
3046	0	35250	31517	
3047	0	30992	30752	
3048	0	25422	30608	
3049	0	23274	32269	
3050	0	22456	34221	
3051	0	20204	35432	
3052	0	16199	35332	
3053	0	12792	34690	
3054	0	12621	33922	
3055	0	16986	34768	
3056	0	25078	33202	
3057	0	32440	32132	
3058	0	38836	32356	
3059	0	45792	32956	
3060	0	48612	34198	
3061	0	46212	35143	
3062	0	44060	33882	
3063	0	42912	31646	
3064	0	42344	32536	
3065	0	41697	33715	
3066	0	40880	34032	
3067	0	42028	33989	
3068	0	43760	32466	
3069	0	43584	32100	
3070	0	42148	31866	
3071	0	36836	31460	
3072	0	26112	32024	
3073	0	15004	32636	
3074	0	9176	31704	
3075	0	10588	31160	
3076	0	18032	31912	
3077	0	24770	32088	
3078	0	28897	30422	
3079	0	32297	30556	
3080	0	32696	31962	
3081	0	31676	33287	
3082	0	30936	34311	
3083	0	35204	34649	
3084	0	39864	35108	
3085	0	42076	34564	
3086	0	41632	33112	
3087	0	41520	31604	
3088	0	41708	32592	
3089	0	41336	32775	
3090	0	40246	32765	
3091	0	36554	33226	
3092	0	33492	33454	
3093	0	29488	34272	
3094	0	25788	34280	
3095	0	22986	33952	
3096	0	21760	28316	
3097	0	26180	26728	
3098	0	31174	29202	
3099	0	33096	31974	
3100	0	31865	34733	
3101	0	32917	35304	
3102	0	36016	35180	
3103	0	38960	35264	
3104	0	42336	33494	
3105	0	42208	32263	
3106	0	37984	31952	
3107	0	31408	33052	
3108	0	28825	35122	
3109	0	30530	35206	
3110	0	31362	33955	
3111	0	30348	30818	
3112	0	30072	29770	
3113	0	28420	29981	
3114	0	28616	32274	
3115	0	27328	34436	
3116	0	25332	34240	
3117	0	22954	31504	
3118	0	23196	31199	
3119	0	25268	32017	
3120	0	29688	32276	
3121	0	33664	32472	
3122	0	36284	31754	
3123	0	38210	31922	
3124	0	40808	31976	
3125	0	44952	31416	
3126	0	46642	31472	
3127	0	47184	32256	
3128	0	46828	32363	
3129	0	44832	33305	
3130	0	40809	33388	
3131	0	34086	33504	
3132	0	26652	34012	
3133	0	22148	35733	
3134	0	22080	35921	
3135	0	23070	33816	
3136	0	23570	32410	
3137	0	23178	31536	
3138	0	26528	32836	
3139	0	29310	33152	
3140	0	27416	32494	
3141	0	25940	31776	
3142	0	25798	31849	
3143	0	26472	32209	
3144	0	28245	32642	
3145	0	30544	32554	
3146	0	34497	32317	
3147	0	39616	32240	
3148	0	42978	31804	
3149	0	46156	31848	
3150	0	49592	32040	
3151	0	51489	32912	
3152	0	48536	33396	
3153	0	42238	33192	
3154	0	33936	32788	
3155	0	26048	33052	
3156	0	22000	32620	
3157	0	20712	32185	
3158	0	22028	33338	
3159	0	23121	32988	
3160	0	26452	33634	
3161	0	32746	33110	
3162	0	37912	33242	
3163	0	42468	34613	
3164	0	45020	33501	
3165	0	44192	33184	
3166	0	39856	32546	
3167	0	33596	31685	
3168	0	28346	30424	
3169	0	22692	29280	
3170	0	19120	30010	
3171	0	22120	31615	
3172	0	24762	32140	
3173	0	26660	32787	
3174	0	27201	33383	
3175	0	28032	33094	
3176	0	30392	34330	
3177	0	31641	34525	
3178	0	31456	34871	
3179	0	30016	34268	
3180	0	28264	32281	
3181	0	28280	31239	
3182	0	28584	30278	
3183	0	29952	30460	
3184	0	34832	30868	
3185	0	41636	30962	
3186	0	45900	33180	
3187	0	47664	35130	
3188	0	46964	36434	
3189	0	44180	36376	
3190	0	42180	33864	
3191	0	40356	33556	
3192	0	40320	34722	
3193	0	39320	34496	
3194	0	35720	34439	
3195	0	29240	33540	
3196	0	21702	31216	
3197	0	16042	31744	
3198	0	11796	31962	
3199	0	10780	30910	
3200	0	14190	31229	
3201	0	20280	31251	
3202	0	27706	31492	
3203	0	36024	31840	
3204	0	42512	33258	
3205	0	45220	32924	
3206	0	48992	33554	
3207	0	46848	32813	
3208	0	42502	32093	
3209	0	39024	32468	
3210	0	36658	32982	
3211	0	34254	32825	
3212	0	32528	33316	
3213	0	33240	33269	
3214	0	33776	33242	
3215	0	33420	32331	
3216	0	35612	31296	
3217	0	37184	31068	
3218	0	36752	32378	
3219	0	36720	32348	
3220	0	33276	32484	
3221	0	27404	31784	
3222	0	22434	32002	
3223	0	21785	32415	
3224	0	22192	32620	
3225	0	25088	34028	
3226	0	28706	34247	
3227	0	29412	34987	
3228	0	29229	33936	
3229	0	26444	33637	
3230	0	24392	34888	
3231	0	27973	35576	
3232	0	32744	34531	
3233	0	35860	32390	
3234	0	38336	30160	
3235	0	39472	29826	
3236	0	39008	30043	
3237	0	39017	29471	
3238	0	38914	30614	
3239	0	38596	32967	
3240	0	38448	33200	
3241	0	38768	32535	
3242	0	40133	33218	
3243	0	39676	33531	
3244	0	37576	33287	
3245	0	34602	32632	
3246	0	34290	32317	
3247	0	31206	31620	
3248	0	28768	31424	
3249	0	26264	31786	
3250	0	24190	33116	
3251	0	23336	33816	
3252	0	24240	34691	
3253	0	27396	34478	
3254	0	34208	33860	
3255	0	38832	32978	
3256	0	37626	31760	
3257	0	33484	31726	
3258	0	29962	32208	
3259	0	26520	33752	
3260	0	23528	34388	
3261	0	22883	34176	
3262	0	24843	32460	
3263	0	30077	31814	
3264	0	35564	32754	
3265	0	36604	31827	
3266	0	36179	30823	
3267	0	35480	31231	
3268	0	34238	31153	
3269	0	32808	31408	
3270	0	29810	32548	
3271	0	29318	33206	
3272	0	30680	34082	
3273	0	34930	34672	
3274	0	38937	35034	
3275	0	41480	34784	
3276	0	42428	33279	
3277	0	40776	33862	
3278	0	37338	34221	
3279	0	34594	33546	
3280	0	30376	32708	
3281	0	25480	32121	
3282	0	23817	32376	
3283	0	27390	31476	
3284	0	34224	30990	
3285	0	39396	32046	
3286	0	43338	33032	
3287	0	45432	32906	
3288	0	42938	32771	
3289	0	36168	32095	
3290	0	30216	31314	
3291	0	26030	32132	
3292	0	22200	31888	
3293	0	23531	32455	
3294	0	25236	33183	
3295	0	27792	33832	
3296	0	30912	34098	
3297	0	33899	33506	
3298	0	34180	31842	
3299	0	31862	30955	
3300	0	30486	32626	
3301	0	29910	33830	
3302	0	30188	34126	
3303	0	31224	34022	
3304	0	35528	33184	
3305	0	38682	31962	
3306	0	41337	30288	
3307	0	40804	31277	
3308	0	39146	32004	
3309	0	36520	32293	
3310	0	35352	31853	
3311	0	34291	32263	
3312	0	33322	33195	
3313	0	32976	34962	
3314	0	33728	34964	
3315	0	32169	34848	
3316	0	28097	32076	
3317	0	24000	31072	
3318	0	23524	31574	
3319	0	23990	32407	
3320	0	25066	32361	
3321	0	26666	33306	
3322	0	27864	32941	
3323	0	29042	34457	
3324	0	31080	36930	
3325	0	34336	35514	
3326	0	39672	31372	
3327	0	41776	28672	
3328	0	38112	29609	
3329	0	34838	31680	
3330	0	34768	32630	
3331	0	38560	33364	
3332	0	43417	31920	
3333	0	46599	31696	
3334	0	44610	32283	
3335	0	38252	33468	
3336	0	31548	33218	
3337	0	25520	32482	
3338	0	20001	32956	
3339	0	15124	32634	
3340	0	13634	32524	
3341	0	15450	33578	
3342	0	18276	32992	
3343	0	22754	32424	
3344	0	29568	31740	
3345	0	37546	31224	
3346	0	42316	31160	
3347	0	41156	32712	
3348	0	39032	33410	
3349	0	37789	33575	
3350	0	37963	32812	
3351	0	41332	30948	
3352	0	45380	30317	
3353	0	46592	31970	
3354	0	43872	34739	
3355	0	37508	35368	
3356	0	30900	37018	
3357	0	26068	35650	
3358	0	21445	33432	
3359	0	19918	34311	
3360	0	21501	33341	
3361	0	27556	32204	
3362	0	35344	31012	
3363	0	39649	31922	
3364	0	38888	32086	
3365	0	35658	31058	
3366	0	31016	29631	
3367	0	28349	30706	
3368	0	28232	33620	
3369	0	31760	37274	
3370	0	36584	37251	
3371	0	38616	33799	
3372	0	38322	32418	
3373	0	36656	30778	
3374	0	32600	30528	
3375	0	28489	31692	
3376	0	27204	32416	
3377	0	28140	32807	
3378	0	29564	32428	
3379	0	30814	31162	
3380	0	32504	31350	
3381	0	34816	32652	
3382	0	38688	33217	
3383	0	38064	33392	
3384	0	36420	32476	
3385	0	37216	31968	
3386	0	40152	32976	
3387	0	38456	32262	
3388	0	34234	32138	
3389	0	29876	33544	
3390	0	27078	35993	
3391	0	28020	36493	
3392	0	30896	36244	
3393	0	31992	34376	
3394	0	30384	30732	
3395	0	26520	28908	
3396	0	23355	28528	
3397	0	21766	30730	
3398	0	22252	32662	
3399	0	24754	33430	
3400	0	29093	34665	
3401	0	34113	34990	
3402	0	37448	34626	
3403	0	40228	33846	
3404	0	42224	32750	
3405	0	42576	30284	
3406	0	40852	30372	
3407	0	38440	31458	
3408	0	34924	33326	
3409	0	32506	35179	
3410	0	35826	33372	
3411	0	39576	29700	
3412	0	39984	29786	
3413	0	40690	29338	
3414	0	41630	29494	
3415	0	36800	31824	
3416	0	31232	32972	
3417	0	28299	34032	
3418	0	25984	36264	
3419	0	24114	33544	
3420	0	24424	30380	
3421	0	24758	29956	
3422	0	25642	32576	
3423	0	28450	34806	
3424	0	29977	34086	
3425	0	33164	34036	
3426	0	31058	35760	
3427	0	29372	36027	
3428	0	30950	36420	
3429	0	32979	33834	
3430	0	31904	32456	
3431	0	28308	31893	
3432	0	24861	30168	
3433	0	23528	31666	
3434	0	25984	32980	
3435	0	32094	34056	
3436	0	37852	34272	
3437	0	42040	34001	
3438	0	45540	32853	
3439	0	45128	31720	
3440	0	41046	32565	
3441	0	38000	32782	
3442	0	35106	31300	
3443	0	30636	29842	
3444	0	26693	30973	
3445	0	23944	32026	
3446	0	22440	32104	
3447	0	24380	32449	
3448	0	26860	34057	
3449	0	30000	36022	
3450	0	35440	34417	
3451	0	43200	32690	
3452	0	50256	30212	
3453	0	49308	28842	
3454	0	43224	31672	
3455	0	34282	33197	
3456	0	25320	33184	
3457	0	18858	33600	
3458	0	15220	34882	
3459	0	16328	33693	
3460	0	21924	34362	
3461	0	29954	36569	
3462	0	38352	36680	
3463	0	43964	35130	
3464	0	43242	31088	
3465	0	40420	28186	
3466	0	37312	27117	
3467	0	33491	28068	
3468	0	30328	28092	
3469	0	28880	28989	
3470	0	30568	30704	
3471	0	36344	33632	
3472	0	44460	36811	
3473	0	45924	37497	
3474	0	43228	36664	
3475	0	42560	34806	
3476	0	41388	35550	
3477	0	35784	36299	
3478	0	29330	34800	
3479	0	24250	32230	
3480	0	20374	30154	
3481	0	20242	31874	
3482	0	24213	31646	
3483	0	25378	29828	
3484	0	23794	29087	
3485	0	25785	30508	
3486	0	29805	31466	
3487	0	35044	32661	
3488	0	37662	33424	
3489	0	38052	33583	
3490	0	40794	33012	
3491	0	42008	32370	
3492	0	41548	32507	
3493	0	36122	33185	
3494	0	28928	33324	
3495	0	21728	32636	
3496	0	15872	32656	
3497	0	13729	31200	
3498	0	13608	30568	
3499	0	18158	31588	
3500	0	27045	33166	
3501	0	37392	33560	
3502	0	43834	35340	
3503	0	46024	36332	
3504	0	45852	35956	
3505	0	46696	34792	
3506	0	49940	32580	
3507	0	53584	32577	
3508	0	50877	31892	
3509	0	45128	31724	
3510	0	35096	31769	
3511	0	27008	29819	
3512	0	25284	29902	
3513	0	26052	32240	
3514	0	27478	32960	
3515	0	33032	34808	
3516	0	39610	37872	
3517	0	42740	35730	
3518	0	37504	32808	
3519	0	26840	33088	
3520	0	15396	32644	
3521	0	7601	31152	
3522	0	4454	31264	
3523	0	6940	31037	
3524	0	10280	31496	
3525	0	13198	30566	
3526	0	23686	33282	
3527	0	35688	34192	
3528	0	39933	32710	
3529	0	41122	28912	
3530	0	41685	27904	
3531	0	42930	30803	
3532	0	42464	33506	
3533	0	42882	35046	
3534	0	44920	35945	
3535	0	45976	36994	
3536	0	45256	35222	
3537	0	44722	32844	
3538	0	45232	31990	
3539	0	44039	31277	
3540	0	43336	31617	
3541	0	41722	32174	
3542	0	36078	32946	
3543	0	29978	33402	
3544	0	30884	33834	
3545	0	41064	34544	
3546	0	47296	32168	
3547	0	40416	30870	
3548	0	28642	30120	
3549	0	19774	31628	
3550	0	12364	31512	
3551	0	6688	31696	
3552	0	3945	31981	
3553	0	5698	34680	
3554	0	9136	34888	
3555	0	14152	34898	
3556	0	21530	33464	
3557	0	28042	33082	
3558	0	36124	32890	
3559	0	44146	32472	
3560	0	50152	32524	
3561	0	51148	31260	
3562	0	49433	29789	
3563	0	46364	31172	
3564	0	43996	33155	
3565	0	41272	33330	
3566	0	42664	32353	
3567	0	44792	30408	
3568	0	43288	30265	
3569	0	39436	31800	
3570	0	33438	33554	
3571	0	29381	35020	
3572	0	26756	33588	
3573	0	24809	32020	
3574	0	24232	31316	
3575	0	24944	30868	
3576	0	28504	32660	
3577	0	31897	35293	
3578	0	32554	35055	
3579	0	32130	32655	
3580	0	31044	34524	
3581	0	28112	37032	
3582	0	25382	37748	
3583	0	25057	37640	
3584	0	25986	33116	
3585	0	28932	27674	
3586	0	33984	25196	
3587	0	36836	26909	
3588	0	40208	29761	
3589	0	41224	33762	
3590	0	37970	34159	
3591	0	36797	31949	
3592	0	42813	30339	
3593	0	42656	31296	
3594	0	35520	35065	
3595	0	32026	39141	
3596	0	32916	38032	
3597	0	33580	35899	
3598	0	39280	34260	
3599	0	40184	34676	
3600	0	36308	36595	
3601	0	28614	35158	
3602	0	21717	33712	
3603	0	17226	32210	
3604	0	14437	30736	
3605	0	13410	28804	
3606	0	11851	27104	
3607	0	11952	27516	
3608	0	16669	29604	
3609	0	22556	30332	
3610	0	30252	29064	
3611	0	36704	29864	
3612	0	42876	31512	
3613	0	46220	33770	
3614	0	48636	34812	
3615	0	50736	33116	
3616	0	52016	33848	
3617	0	52408	37516	
3618	0	49336	37983	
3619	0	43622	30836	
3620	0	37056	27458	
3621	0	29432	28216	
3622	0	25430	31568	
3623	0	30296	36388	
3624	0	37512	39372	
3625	0	42251	38724	
3626	0	41378	35808	
3627	0	40680	30722	
3628	0	47160	29701	
3629	0	50253	31246	
3630	0	42640	32940	
3631	0	28752	33386	
3632	0	13890	32836	
3633	0	5000	33496	
3634	0	1059	31768	
3635	0	2108	25844	
3636	0	6100	28211	
3637	0	9645	30321	
3638	0	12852	32328	
3639	0	32600	39040	
3640	0	39993	38509	
3641	0	42608	34258	
3642	0	41868	31706	
3643	0	41116	33020	
3644	0	39120	33448	
3645	0	34548	30892	
3646	0	33276	26938	
3647	0	35592	25016	
3648	0	38456	25444	
3649	0	49138	28504	
3650	0	55792	35756	
3651	0	54328	41664	
3652	0	51336	45001	
3653	0	47912	44422	
3654	0	36594	37800	
3655	0	23106	30696	
3656	0	10213	28432	
3657	0	1243	28288	
3658	0	3417	32436	
3659	0	7299	36043	
3660	0	13524	32612	
3661	0	35596	33512	
3662	0	49162	33406	
3663	0	57612	30420	
3664	0	58210	28681	
3665	0	56813	26675	
3666	0	51044	31594	
3667	0	43632	32045	
3668	0	37888	25908	
3669	0	37108	25312	
3670	0	39266	31792	
3671	0	37048	36728	
3672	0	36752	41816	
3673	0	29314	42844	
3674	0	17092	36096	
3675	0	6576	29501	
3676	0	4974	25876	
3677	0	6228	27260	
3678	0	8377	33198	
3679	0	15700	35296	
3680	0	29376	36738	
3681	0	38492	36427	
3682	0	42820	35108	
3683	0	46688	35394	
3684	0	44562	34945	
3685	0	40138	30674	
3686	0	33892	28205	
3687	0	30698	25737	
3688	0	31638	26450	
3689	0	27800	33504	
3690	0	23232	39125	
3691	0	22688	36786	
3692	0	24710	30314	
3693	0	28698	33368	
3694	0	30408	38496	
3695	0	31388	41333	
3696	0	37384	35770	
3697	0	49920	30580	
3698	0	52956	26402	
3699	0	48178	23920	
3700	0	43688	23997	
3701	0	39138	23280	
3702	0	36100	26040	
3703	0	39004	34396	
3704	0	38484	43530	
3705	0	34402	47852	
3706	0	38962	39516	
3707	0	50736	32164	
3708	0	52440	28552	
3709	0	50384	31082	
3710	0	48196	30166	
3711	0	32828	24820	
3712	0	10234	26460	
3713	0	0	35544	
3714	0	0	42042	
3715	0	1380	43484	
3716	0	5723	37536	
3717	0	9330	34232	
3718	0	12394	30044	
3719	0	47332	24692	
3720	0	62624	24800	
3721	0	62792	32200	
3722	0	54354	39688	
3723	0	42836	37920	
3724	0	28308	35100	
3725	0	18490	29600	
3726	0	14708	18428	
3727	0	16172	16761	
3728	0	17738	28668	
3729	0	18692	42090	
3730	0	20610	49876	
3731	0	29068	44448	
3732	0	43016	26073	
3733	0	52396	23936	
3734	0	55328	30012	
3735	0	53464	36242	
3736	0	55368	38305	
3737	0	55672	37677	
3738	0	53320	33300	
3739	0	42029	30246	
3740	0	27699	32844	
3741	0	20363	34690	
3742	0	14638	35414	
3743	0	10181	34928	
3744	0	9984	32760	
3745	0	12441	26184	
3746	0	20448	21792	
3747	0	33772	23628	
3748	0	43616	29266	
3749	0	45532	34755	
3750	0	40712	35163	
3751	0	37764	38864	
3752	0	32892	42912	
3753	0	28388	42336	
3754	0	28676	32730	
3755	0	29432	25402	
3756	0	31326	27436	
3757	0	38136	35684	
3758	0	45856	41021	
3759	0	47994	37149	
3760	0	42120	26372	
3761	0	32722	19112	
3762	0	24864	25260	
3763	0	25176	31816	
3764	0	30452	36720	
3765	0	26900	38824	
3766	0	21352	31992	
3767	0	14452	25651	
3768	0	12018	25900	
3769	0	21236	30232	
3770	0	38948	37714	
3771	0	56524	44804	
3772	0	62656	45056	
3773	0	59720	38304	
3774	0	56264	28516	
3775	0	53220	29048	
3776	0	50600	30790	
3777	0	25400	35376	
3778	0	0	34296	
3779	0	0	32228	
3780	0	1603	33050	
3781	0	5932	37520	
3782	0	9530	39814	
3783	0	12568	31280	
3784	0	35212	22489	
3785	0	47426	23986	
3786	0	48985	30292	
3787	0	45132	29220	
3788	0	41520	25684	
3789	0	38176	24022	
3790	0	38936	25583	
3791	0	40472	33588	
3792	0	42184	39044	
3793	0	51384	41552	
3794	0	52908	38432	
3795	0	44032	34120	
3796	0	31804	33401	
3797	0	24538	32980	
3798	0	21866	32660	
3799	0	23680	28628	
3800	0	27396	28756	
3801	0	26188	33968	
3802	0	21496	38032	
3803	0	27154	40966	
3804	0	40337	41264	
3805	0	48097	39264	
3806	0	50064	34354	
3807	0	49306	27746	
3808	0	42044	27510	
3809	0	30908	26478	
3810	0	23424	28338	
3811	0	18721	31484	
3812	0	12582	30916	
3813	0	8886	34376	
3814	0	8848	39450	
3815	0	10773	38902	
3816	0	15164	34660	
3817	0	19800	32103	
3818	0	27704	32344	
3819	0	44196	31846	
3820	0	55672	30352	
3821	0	51712	26774	
3822	0	42768	24369	
3823	0	37488	28350	
3824	0	38452	33600	
3825	0	48504	38320	
3826	0	59161	36568	
3827	0	57290	32268	
3828	0	54288	29336	
3829	0	51544	33440	
3830	0	33612	36040	
3831	0	20420	38008	
3832	0	13418	34822	
3833	0	10819	34572	
3834	0	4406	32268	
3835	0	3363	32184	
3836	0	11411	31820	
3837	0	20564	26264	
3838	0	25098	26106	
3839	0	24594	31897	
3840	0	24789	32806	
3841	0	33284	34060	
3842	0	41256	34802	
3843	0	46416	32728	
3844	0	54092	33588	
3845	0	57584	34454	
3846	0	56872	36315	
3847	0	52208	35720	
3848	0	44098	34912	
3849	0	35096	34112	
3850	0	23337	26660	
3851	0	17908	24530	
3852	0	16528	23868	
3853	0	18632	28124	
3854	0	16306	31348	
3855	0	13542	32224	
3856	0	14738	39824	
3857	0	23950	39736	
3858	0	46112	35600	
3859	0	59986	32140	
3860	0	61378	35176	
3861	0	56587	40590	
3862	0	55796	40966	
3863	0	54248	34856	
3864	0	51676	28760	
3865	0	45994	23460	
3866	0	21148	29842	
3867	0	12886	37794	
3868	0	13317	37612	
3869	0	13506	30272	
3870	0	12428	27320	
3871	0	12416	29782	
3872	0	16324	32512	
3873	0	19376	30114	
3874	0	21714	30394	
3875	0	23960	37684	
3876	0	22228	37236	
3877	0	21510	25962	
3878	0	24828	26584	
3879	0	30736	32516	
3880	0	34329	38010	
3881	0	34008	37040	
3882	0	33953	32379	
3883	0	35594	30636	
3884	0	43688	31344	
3885	0	60068	32636	
3886	0	65474	34404	
3887	0	62512	33440	
3888	0	58560	31449	
3889	0	55178	29324	
3890	0	52298	24857	
3891	0	49816	18523	
3892	0	42684	25944	
3893	0	14072	44640	
3894	0	0	54704	
3895	0	0	45182	
3896	0	1488	30000	
3897	0	5819	28960	
3898	0	9427	34641	
3899	0	24224	32690	
3900	0	43272	33080	
3901	0	50000	38262	
3902	0	51164	40992	
3903	0	49772	35008	
3904	0	43968	28032	
3905	0	33704	23642	
3906	0	27480	23124	
3907	0	28556	28784	
3908	0	32354	31906	
3909	0	32816	32232	
3910	0	29548	25509	
3911	0	32524	26440	
3912	0	38960	34916	
3913	0	44498	42816	
3914	0	45856	37860	
3915	0	38892	29444	
3916	0	29212	27216	
3917	0	23256	25452	
3918	0	20160	28843	
3919	0	22912	40040	
3920	0	17370	50500	
3921	0	15760	46176	
3922	0	18242	34188	
3923	0	27644	25912	
3924	0	40888	28540	
3925	0	46992	35384	
3926	0	50436	32650	
3927	0	60944	22436	
3928	0	59224	18384	
3929	0	55940	26002	
3930	0	52674	33387	
3931	0	22309	37344	
3932	0	6522	42796	
3933	0	0	39332	
3934	0	3476	30080	
3935	0	7444	27120	
3936	0	10800	33393	
3937	0	13659	33138	
3938	0	21716	34128	
3939	0	36704	35202	
3940	0	47154	35280	
3941	0	65016	34252	
3942	0	65474	32962	
3943	0	62930	33028	
3944	0	58856	33560	
3945	0	55416	31936	
3946	0	52496	38048	
3947	0	49992	40370	
3948	0	47816	31136	
3949	0	45932	27232	
3950	0	34902	30304	
3951	0	29456	34980	
3952	0	22164	23172	
3953	0	18624	19508	
3954	0	17896	30240	
3955	0	14168	40922	
3956	0	6644	37880	
3957	0	592	28968	
3958	0	3058	26176	
3959	0	6984	28558	
3960	0	10370	36676	
3961	0	13274	37666	
3962	0	15773	38792	
3963	0	25842	37716	
3964	0	35052	35600	
3965	0	38096	31248	
3966	0	35616	27968	
3967	0	34680	27016	
3968	0	50104	25858	
3969	0	64120	30620	
3970	0	65480	36408	
3971	0	59760	37936	
3972	0	53600	36688	
3973	0	47813	35532	
3974	0	45672	36836	
3975	0	48890	40229	
3976	0	43204	41824	
3977	0	33402	32840	
3978	0	23237	23108	
3979	0	14980	25952	
3980	0	8718	33096	
3981	0	6451	31776	
3982	0	6700	30264	
3983	0	8100	30974	
3984	0	14976	28296	
3985	0	32057	26809	
3986	0	45836	30348	
3987	0	56052	33164	
3988	0	61096	33641	
3989	0	59784	29656	
3990	0	56468	27396	
3991	0	53416	28112	
3992	0	36284	34284	
3993	0	24672	37192	
3994	0	13492	35980	
3995	0	4758	41304	
3996	0	2419	42724	
3997	0	7980	43527	
3998	0	16473	35120	
3999	0	29212	25521	
4000	0	40172	22012	
4001	0	47904	23002	
4002	0	49720	28834	
4003	0	45808	31488	
4004	0	37132	36432	
4005	0	26792	44554	
4006	0	16392	45856	
4007	0	8297	37820	
4008	0	9666	26068	
4009	0	12554	33308	
4010	0	15148	37992	
4011	0	28988	37816	
4012	0	43456	30656	
4013	0	59256	22496	
4014	0	65456	19308	
4015	0	64660	25560	
4016	0	60736	31601	
4017	0	57056	37180	
4018	0	53890	33770	
4019	0	51200	29700	
4020	0	48860	21738	
4021	0	41636	30572	
4022	0	28168	40416	
4023	0	12850	42404	
4024	0	2448	41712	
4025	0	2061	33394	
4026	0	4282	28724	
4027	0	8625	29032	
4028	0	21857	31292	
4029	0	42210	29098	
4030	0	56200	27756	
4031	0	58700	27050	
4032	0	52432	30604	
4033	0	42408	36856	
4034	0	27917	39504	
4035	0	10784	37995	
4036	0	1490	32293	
4037	0	4600	35545	
4038	0	8332	39704	
4039	0	11540	35246	
4040	0	14276	29405	
4041	0	16632	31356	
4042	0	40544	38896	
4043	0	56800	38720	
4044	0	65448	33056	
4045	0	65464	24842	
4046	0	62456	27372	
4047	0	58480	39368	
4048	0	55096	39148	
4049	0	52228	28368	
4050	0	45012	16946	
4051	0	21056	21016	
4052	0	8537	27962	
4053	0	2132	34504	
4054	0	707	36204	
4055	0	4639	39940	
4056	0	8401	39034	
4057	0	11598	38832	
4058	0	14333	33504	
4059	0	32848	25756	
4060	0	43658	28856	
4061	0	49538	31338	
4062	0	52920	34706	
4063	0	52520	39713	
4064	0	48860	40507	
4065	0	45100	37012	
4066	0	43264	32468	
4067	0	42156	25240	
4068	0	39098	22372	
4069	0	36268	28208	
4070	0	35268	35451	
4071	0	34370	35381	
4072	0	34498	38968	
4073	0	37794	40368	
4074	0	44308	30457	
4075	0	46888	21584	
4076	0	43074	26937	
4077	0	38404	36966	
4078	0	31069	38016	
4079	0	26740	29536	
4080	0	25562	30176	
4081	0	21909	35618	
4082	0	22957	36999	
4083	0	27428	35458	
4084	0	28708	32626	
4085	0	25620	31272	
4086	0	19205	31224	
4087	0	16248	32230	
4088	0	18932	28240	
4089	0	28678	28688	
4090	0	42720	36400	
4091	0	48714	40100	
4092	0	42824	36028	
4093	0	31526	32890	
4094	0	23230	30164	
4095	0	17201	24162	
4096	0	8170	28154	
4097	0	8512	30922	
4098	0	11490	31924	
4099	0	21397	35500	
4100	0	34670	36100	
4101	0	39988	35496	
4102	0	42196	33848	
4103	0	42324	32839	
4104	0	41418	32656	
4105	0	39728	34138	
4106	0	40836	34247	
4107	0	42205	31842	
4108	0	42732	29924	
4109	0	43496	31339	
4110	0	47408	28808	
4111	0	50168	30592	
4112	0	51864	34722	
4113	0	52896	33536	
4114	0	51714	34542	
4115	0	49568	37520	
4116	0	41656	37112	
4117	0	24786	34004	
4118	0	11768	32188	
4119	0	6323	33774	
4120	0	824	34740	
4121	0	1203	36704	
4122	0	5309	38968	
4123	0	8980	40556	
4124	0	21804	38048	
4125	0	39776	30418	
4126	0	45554	19980	
4127	0	47672	14564	
4128	0	48200	16000	
4129	0	46099	22228	
4130	0	42444	30264	
4131	0	37266	37760	
4132	0	33376	44464	
4133	0	31356	40724	
4134	0	32600	29610	
4135	0	32532	26119	
4136	0	34309	30022	
4137	0	34282	34784	
4138	0	37089	36896	
4139	0	40516	37440	
4140	0	43200	37784	
4141	0	41580	38521	
4142	0	37968	36959	
4143	0	31768	34368	
4144	0	22958	32120	
4145	0	14861	30034	
4146	0	14074	28866	
4147	0	22632	28545	
4148	0	34074	30174	
4149	0	44096	32872	
4150	0	49720	34676	
4151	0	48824	34832	
4152	0	41172	34306	
4153	0	30696	29817	
4154	0	20900	26448	
4155	0	17352	31341	
4156	0	20338	35298	
4157	0	24413	36226	
4158	0	25445	34136	
4159	0	25757	32667	
4160	0	27944	32743	
4161	0	29096	32588	
4162	0	33176	32830	
4163	0	45584	33330	
4164	0	55268	33844	
4165	0	54010	35095	
4166	0	43012	33916	
4167	0	30452	33602	
4168	0	22160	35624	
4169	0	18696	33216	
4170	0	17776	30564	
4171	0	21599	30836	
4172	0	25280	31701	
4173	0	28972	32160	
4174	0	27780	30852	
4175	0	25264	29872	
4176	0	27317	29258	
4177	0	32040	30346	
4178	0	35140	33421	
4179	0	37306	33926	
4180	0	40792	33934	
4181	0	44346	33557	
4182	0	46236	30552	
4183	0	47592	30926	
4184	0	47546	32159	
4185	0	43146	36718	
4186	0	34084	39024	
4187	0	26882	36784	
4188	0	24576	30052	
4189	0	23785	29344	
4190	0	23732	32357	
4191	0	27028	31895	
4192	0	31356	30250	
4193	0	38272	28752	
4194	0	43131	29720	
4195	0	41121	33526	
4196	0	38900	33830	
4197	0	36950	33264	
4198	0	32813	35227	
4199	0	30636	34823	
4200	0	32772	32404	
4201	0	37268	31008	
4202	0	38680	32174	
4203	0	34032	34692	
4204	0	26090	35500	
4205	0	18707	34348	
4206	0	18404	31584	
4207	0	24194	31506	
4208	0	26177	34612	
4209	0	26717	34595	
4210	0	26965	31053	
4211	0	24434	28564	
4212	0	19673	29416	
4213	0	20112	32966	
4214	0	29341	35632	
4215	0	37042	35608	
4216	0	43040	34053	
4217	0	47482	30848	
4218	0	51320	29737	
4219	0	52328	30765	
4220	0	50800	33776	
4221	0	46940	35908	
4222	0	38044	32944	
4223	0	28280	30416	
4224	0	17692	30536	
4225	0	13756	31280	
4226	0	19664	33824	
4227	0	27164	36048	
4228	0	33210	37906	
4229	0	35402	36197	
4230	0	33576	31490	
4231	0	34244	27760	
4232	0	34724	29447	
4233	0	36296	31556	
4234	0	37440	31980	
4235	0	35280	31025	
4236	0	33645	32413	
4237	0	29496	35740	
4238	0	22308	34854	
4239	0	21806	33390	
4240	0	27848	33890	
4241	0	33488	33454	
4242	0	37232	33734	
4243	0	41482	32578	
4244	0	44928	31485	
4245	0	47096	30162	
4246	0	48864	29634	
4247	0	48526	30254	
4248	0	45880	32749	
4249	0	39338	35312	
4250	0	29817	34006	
4251	0	19208	33016	
4252	0	17626	33362	
4253	0	27968	37826	
4254	0	38160	35552	
4255	0	38844	30432	
4256	0	30268	29242	
4257	0	15132	30284	
4258	0	2427	29744	
4259	0	4892	30027	
4260	0	8528	32224	
4261	0	11700	33855	
4262	0	29460	29220	
4263	0	43360	27252	
4264	0	50688	30520	
4265	0	54252	33381	
4266	0	54476	36554	
4267	0	49384	38980	
4268	0	41249	38204	
4269	0	32514	35908	
4270	0	28704	34160	
4271	0	23460	34532	
4272	0	19928	37076	
4273	0	20613	36176	
4274	0	26552	36160	
4275	0	32778	34848	
4276	0	34232	29056	
4277	0	32596	24926	
4278	0	32912	26024	
4279	0	34756	26726	
4280	0	39824	30272	
4281	0	44522	33804	
4282	0	45764	34644	
4283	0	44256	33636	
4284	0	40460	33768	
4285	0	34236	33758	
4286	0	29417	30674	
4287	0	24562	31978	
4288	0	25931	34261	
4289	0	31284	35238	
4290	0	36056	34040	
4291	0	38556	32492	
4292	0	38536	31999	
4293	0	35580	32584	
4294	0	29273	32063	
4295	0	25392	32664	
4296	0	25856	34922	
4297	0	30386	35034	
4298	0	34480	33732	
4299	0	37212	32872	
4300	0	37636	31767	
4301	0	35828	30880	
4302	0	32384	31272	
4303	0	26056	31040	
4304	0	27634	29970	
4305	0	36836	32068	
4306	0	43944	33345	
4307	0	43292	32807	
4308	0	32608	31544	
4309	0	19560	31892	
4310	0	14494	31662	
4311	0	14544	30488	
4312	0	17672	31379	
4313	0	23956	34279	
4314	0	30980	37070	
4315	0	33060	36721	
4316	0	34088	34593	
4317	0	35506	34240	
4318	0	35626	33920	
4319	0	37274	33536	
4320	0	47280	31364	
4321	0	55984	30072	
4322	0	58736	30674	
4323	0	56228	31608	
4324	0	45408	30810	
4325	0	28644	31936	
4326	0	14390	34556	
4327	0	11484	34926	
4328	0	15776	33102	
4329	0	16924	34373	
4330	0	22496	35582	
4331	0	30360	34130	
4332	0	34264	32048	
4333	0	32736	28925	
4334	0	30460	31366	
4335	0	30160	35254	
4336	0	30220	35842	
4337	0	31518	34608	
4338	0	34688	31058	
4339	0	36196	29908	
4340	0	34536	29609	
4341	0	33160	31498	
4342	0	31366	32954	
4343	0	31874	31912	
4344	0	37088	31096	
4345	0	43133	31875	
4346	0	44928	30734	
4347	0	44864	29228	
4348	0	41232	30466	
4349	0	32532	35266	
4350	0	28194	39688	
4351	0	29124	39495	
4352	0	31402	34992	
4353	0	27504	33509	
4354	0	19470	33486	
4355	0	15051	30342	
4356	0	20292	28136	
4357	0	35498	29664	
4358	0	57428	31944	
4359	0	60624	34384	
4360	0	57560	35618	
4361	0	54376	32396	
4362	0	51616	33860	
4363	0	18258	36384	
4364	0	0	35410	
4365	0	0	26784	
4366	0	3394	19026	
4367	0	7408	21120	
4368	0	18298	30460	
4369	0	35180	34800	
4370	0	48240	35668	
4371	0	55876	38048	
4372	0	57248	39700	
4373	0	54148	40481	
4374	0	44032	37096	
4375	0	28648	35858	
4376	0	19396	33962	
4377	0	16293	31875	
4378	0	19048	31805	
4379	0	21186	33373	
4380	0	22614	33640	
4381	0	26761	31208	
4382	0	31854	29196	
4383	0	36100	30608	
4384	0	39656	32816	
4385	0	39712	31545	
4386	0	37324	29352	
4387	0	37432	29887	
4388	0	38240	31017	
4389	0	40628	31750	
4390	0	42890	31890	
4391	0	42160	31047	
4392	0	36784	32708	
4393	0	27712	35172	
4394	0	23145	37556	
4395	0	23861	38072	
4396	0	26404	37828	
4397	0	32288	35052	
4398	0	36640	31506	
4399	0	38883	31428	
4400	0	36145	32167	
4401	0	32840	31881	
4402	0	29864	31306	
4403	0	29180	33191	
4404	0	27776	33865	
4405	0	24472	33966	
4406	0	22048	32610	
4407	0	25896	29335	
4408	0	32248	27349	
4409	0	35891	30669	
4410	0	38694	33532	
4411	0	41237	32160	
4412	0	44658	30712	
4413	0	49658	30560	
4414	0	52360	29900	
4415	0	50112	29958	
4416	0	43420	31509	
4417	0	35650	35000	
4418	0	28192	35730	
4419	0	22144	35924	
4420	0	22416	37632	
4421	0	27160	36608	
4422	0	30824	33808	
4423	0	33650	33242	
4424	0	28336	35040	
4425	0	19264	35114	
4426	0	13533	33244	
4427	0	12776	31480	
4428	0	18432	31668	
4429	0	25268	29251	
4430	0	28060	28075	
4431	0	29680	29629	
4432	0	33377	30534	
4433	0	39140	31790	
4434	0	45454	32800	
4435	0	50226	33516	
4436	0	50160	34311	
4437	0	45424	34432	
4438	0	36617	34900	
4439	0	29420	34816	
4440	0	25800	33346	
4441	0	27384	32100	
4442	0	36795	29132	
4443	0	40316	28624	
4444	0	36642	30436	
4445	0	31592	33060	
4446	0	25350	34196	
4447	0	24620	32936	
4448	0	25088	36792	
4449	0	24804	40724	
4450	0	24672	38276	
4451	0	24420	31304	
4452	0	27284	29996	
4453	0	32408	32816	
4454	0	38024	32908	
4455	0	42160	31369	
4456	0	44784	32544	
4457	0	46120	31920	
4458	0	43392	30823	
4459	0	38432	28765	
4460	0	35324	28234	
4461	0	34588	29191	
4462	0	29852	32292	
4463	0	25572	34776	
4464	0	24548	36760	
4465	0	26072	35896	
4466	0	29348	29856	
4467	0	31188	27512	
4468	0	31773	30502	
4469	0	32914	33768	
4470	0	35364	36829	
4471	0	36756	37424	
4472	0	36434	35228	
4473	0	38016	35568	
4474	0	38864	36128	
4475	0	35828	32589	
4476	0	30768	29768	
4477	0	27026	28508	
4478	0	29976	31318	
4479	0	32292	29204	
4480	0	32914	31097	
4481	0	33906	35553	
4482	0	31968	34304	
4483	0	30654	31956	
4484	0	27810	32164	
4485	0	23868	32058	
4486	0	27261	33586	
4487	0	39032	33496	
4488	0	51494	32280	
4489	0	57136	31232	
4490	0	55856	32136	
4491	0	53072	31713	
4492	0	41996	32634	
4493	0	29036	33850	
4494	0	15928	34984	
4495	0	7548	34128	
4496	0	14875	33434	
4497	0	26802	34308	
4498	0	31912	33243	
4499	0	29208	30608	
4500	0	21160	30320	
4501	0	12486	32132	
4502	0	8426	34464	
4503	0	12612	35178	
4504	0	19570	34786	
4505	0	25928	34060	
4506	0	30386	32320	
4507	0	32356	30326	
4508	0	36352	29252	
4509	0	42922	29592	
4510	0	47456	30570	
4511	0	46010	31554	
4512	0	41643	32626	
4513	0	40124	33786	
4514	0	40153	35008	
4515	0	39853	34759	
4516	0	40436	34369	
4517	0	39190	33230	
4518	0	36800	31722	
4519	0	34633	30395	
4520	0	32252	30087	
4521	0	29868	31635	
4522	0	30000	33380	
4523	0	30982	33451	
4524	0	34156	34240	
4525	0	38516	33416	
4526	0	40880	31222	
4527	0	39720	31539	
4528	0	38122	33828	
4529	0	35802	35644	
4530	0	32072	36773	
4531	0	27720	34328	
4532	0	22732	33664	
4533	0	23047	32956	
4534	0	26841	32636	
4535	0	32552	30732	
4536	0	36192	29178	
4537	0	38164	31817	
4538	0	37846	34792	
4539	0	36584	37319	
4540	0	34452	36382	
4541	0	31900	31048	
4542	0	30480	27107	
4543	0	28224	26928	
4544	0	25804	31672	
4545	0	27704	34013	
4546	0	30408	33752	
4547	0	38120	33272	
4548	0	43492	33536	
4549	0	42000	33400	
4550	0	34960	32030	
4551	0	30128	31236	
4552	0	25248	32832	
4553	0	18510	35248	
4554	0	12552	34408	
4555	0	10788	32320	
4556	0	16438	34616	
4557	0	26416	36664	
4558	0	38441	35858	
4559	0	47688	31260	
4560	0	49180	27766	
4561	0	45724	29885	
4562	0	41932	31254	
4563	0	39144	31965	
4564	0	38320	33275	
4565	0	37118	32668	
4566	0	35034	32462	
4567	0	33330	31436	
4568	0	32936	29336	
4569	0	30794	30408	
4570	0	28170	31433	
4571	0	28782	32422	
4572	0	30114	31648	
4573	0	31821	30856	
4574	0	30892	31930	
4575	0	29828	33490	
4576	0	27872	34043	
4577	0	29056	34661	
4578	0	30218	36208	
4579	0	32840	36631	
4580	0	34768	34622	
4581	0	32824	34054	
4582	0	31530	33820	
4583	0	32545	32968	
4584	0	35544	31404	
4585	0	37456	32121	
4586	0	37108	32774	
4587	0	36044	32250	
4588	0	34090	32858	
4589	0	30550	32972	
4590	0	26490	33460	
4591	0	26188	32690	
4592	0	26186	32538	
4593	0	28085	33658	
4594	0	32994	34236	
4595	0	37842	34348	
4596	0	42552	34396	
4597	0	44714	33038	
4598	0	41988	28342	
4599	0	36176	27600	
4600	0	28484	29132	
4601	0	24180	32944	
4602	0	22018	35645	
4603	0	24352	37380	
4604	0	29191	36592	
4605	0	32732	34098	
4606	0	36249	32868	
4607	0	40274	32288	
4608	0	44568	31964	
4609	0	45574	31834	
4610	0	45620	31516	
4611	0	41912	32680	
4612	0	36556	31072	
4613	0	31637	27752	
4614	0	28400	28088	
4615	0	29000	35400	
4616	0	30634	41185	
4617	0	30848	38919	
4618	0	30380	30276	
4619	0	29996	27143	
4620	0	28834	29080	
4621	0	26457	31736	
4622	0	25794	32304	
4623	0	27848	34328	
4624	0	31816	35482	
4625	0	34904	34003	
4626	0	35293	29263	
4627	0	33884	27080	
4628	0	33602	26914	
4629	0	36422	29191	
4630	0	40984	34689	
4631	0	44020	36482	
4632	0	43618	37328	
4633	0	39640	36812	
4634	0	31640	35754	
4635	0	21820	32932	
4636	0	12036	33700	
4637	0	5987	35770	
4638	0	6130	34700	
4639	0	9430	32688	
4640	0	12474	31024	
4641	0	19712	29945	
4642	0	25434	29462	
4643	0	30508	30086	
4644	0	36302	31826	
4645	0	42042	32455	
4646	0	45866	32596	
4647	0	47554	32064	
4648	0	47404	32715	
4649	0	46264	32815	
4650	0	44736	32425	
4651	0	43186	33588	
4652	0	41462	33211	
4653	0	40008	33674	
4654	0	39606	34166	
4655	0	39468	34087	
4656	0	39760	33060	
4657	0	38488	32370	
4658	0	38340	32218	
4659	0	38696	32408	
4660	0	37176	33540	
4661	0	35488	33025	
4662	0	32620	32128	
4663	0	27952	32301	
4664	0	22644	32976	
4665	0	19008	33968	
4666	0	18098	34121	
4667	0	19984	32322	
4668	0	26924	31620	
4669	0	34584	31820	
4670	0	39722	31768	
4671	0	45760	31764	
4672	0	50420	31996	
4673	0	50154	32356	
4674	0	46124	32807	
4675	0	40102	32658	
4676	0	34176	32430	
4677	0	27565	32549	
4678	0	20772	32292	
4679	0	15428	32440	
4680	0	13173	33523	
4681	0	12858	33528	
4682	0	13894	33964	
4683	0	13904	33296	
4684	0	16989	32919	
4685	0	26048	32509	
4686	0	34306	32864	
4687	0	39864	32590	
4688	0	42296	31984	
4689	0	41788	33010	
4690	0	39512	33232	
4691	0	38202	32949	
4692	0	37226	33489	
4693	0	37416	33470	
4694	0	37320	33085	
4695	0	40376	33044	
4696	0	42866	32921	
4697	0	46008	32444	
4698	0	48194	32621	
4699	0	45225	32843	
4700	0	39864	33612	
4701	0	36280	33472	
4702	0	31756	32242	
4703	0	24978	29344	
4704	0	18201	28688	
4705	0	14998	31032	
4706	0	15786	35070	
4707	0	21370	36359	
4708	0	26322	36200	
4709	0	31464	35886	
4710	0	36268	33808	
4711	0	39216	29949	
4712	0	38394	27448	
4713	0	35912	26530	
4714	0	32786	28148	
4715	0	30088	32000	
4716	0	28562	35005	
4717	0	27128	36210	
4718	0	27132	36026	
4719	0	30632	35656	
4720	0	34616	34759	
4721	0	38404	33306	
4722	0	39498	32292	
4723	0	41056	31403	
4724	0	42212	30527	
4725	0	42740	29928	
4726	0	43014	29405	
4727	0	40161	31364	
4728	0	34610	34240	
4729	0	29320	35836	
4730	0	24044	35224	
4731	0	19840	33970	
4732	0	17236	33234	
4733	0	20244	33830	
4734	0	28228	33996	
4735	0	40414	34068	
4736	0	52354	33748	
4737	0	56520	33006	
4738	0	49508	32580	
4739	0	37100	32900	
4740	0	22201	33480	
4741	0	10158	33596	
4742	0	4354	32121	
4743	0	5818	31661	
4744	0	9264	30956	
4745	0	15898	30458	
4746	0	27489	30316	
4747	0	35924	30420	
4748	0	41458	30996	
4749	0	45868	32245	
4750	0	48352	32438	
4751	0	49354	32432	
4752	0	48708	32852	
4753	0	46504	32836	
4754	0	43320	33159	
4755	0	39668	32576	
4756	0	35320	33384	
4757	0	32610	33007	
4758	0	31768	33057	
4759	0	31638	32901	
4760	0	31300	34744	
4761	0	31704	34386	
4762	0	33853	33834	
4763	0	36057	33670	
4764	0	37100	32747	
4765	0	37064	32331	
4766	0	36270	32619	
4767	0	33568	32664	
4768	0	29122	32628	
4769	0	24244	31496	
4770	0	20176	30180	
4771	0	19278	29996	
4772	0	20515	30848	
4773	0	23968	32044	
4774	0	27004	32467	
4775	0	28544	33829	
4776	0	29758	35598	
4777	0	32404	35136	
4778	0	35090	33896	
4779	0	36608	33026	
4780	0	38616	31760	
4781	0	41152	31568	
4782	0	43154	33248	
4783	0	43672	35136	
4784	0	42209	35296	
4785	0	40036	35702	
4786	0	37952	34368	
4787	0	36108	31780	
4788	0	34523	30599	
4789	0	32248	31036	
4790	0	30994	31106	
4791	0	28482	29894	
4792	0	27956	29593	
4793	0	28824	29729	
4794	0	27344	30838	
4795	0	25396	32908	
4796	0	26732	34362	
4797	0	26272	35372	
4798	0	24952	34832	
4799	0	24609	36306	
4800	0	25833	34869	
4801	0	29220	32407	
4802	0	32237	31876	
4803	0	33916	31858	
4804	0	36712	33654	
4805	0	41680	33968	
4806	0	46340	32137	
4807	0	45764	31259	
4808	0	42768	31580	
4809	0	37955	32115	
4810	0	30854	30832	
4811	0	24000	29794	
4812	0	20100	31060	
4813	0	19523	33234	
4814	0	20832	33928	
4815	0	25860	34132	
4816	0	35648	33348	
4817	0	40728	31296	
4818	0	42810	33096	
4819	0	43801	36642	
4820	0	42660	38343	
4821	0	39252	37024	
4822	0	36956	31879	
4823	0	36304	28692	
4824	0	35378	28985	
4825	0	33844	30463	
4826	0	32192	31455	
4827	0	29984	32031	
4828	0	29372	32519	
4829	0	29772	31970	
4830	0	27168	32143	
4831	0	23840	32848	
4832	0	21860	32982	
4833	0	20684	32666	
4834	0	23396	33040	
4835	0	28456	33560	
4836	0	36400	33746	
4837	0	41268	33800	
4838	0	41544	33234	
4839	0	39172	32530	
4840	0	36308	32418	
4841	0	33789	32421	
4842	0	31809	31483	
4843	0	30536	30611	
4844	0	29390	30791	
4845	0	30040	32280	
4846	0	33070	33096	
4847	0	36726	34168	
4848	0	39652	34416	
4849	0	39346	34656	
4850	0	36673	34676	
4851	0	37354	34408	
4852	0	39156	35124	
4853	0	39210	35306	
4854	0	36300	35141	
4855	0	33588	33296	
4856	0	30032	31877	
4857	0	29522	30957	
4858	0	32933	31504	
4859	0	30324	31819	
4860	0	28562	30964	
4861	0	27748	30562	
4862	0	26328	32180	
4863	0	24892	33910	
4864	0	24917	34985	
4865	0	26312	34073	
4866	0	30101	32454	
4867	0	35228	30392	
4868	0	39048	30168	
4869	0	39521	30599	
4870	0	36956	31395	
4871	0	32840	32057	
4872	0	27642	30648	
4873	0	25892	30339	
4874	0	26992	32868	
4875	0	25450	33472	
4876	0	26250	34245	
4877	0	29160	32698	
4878	0	31554	31360	
4879	0	32594	32933	
4880	0	33236	33526	
4881	0	33058	32771	
4882	0	31340	33788	
4883	0	28676	33894	
4884	0	28836	35053	
4885	0	33498	36056	
4886	0	38564	34968	
4887	0	40588	32710	
4888	0	38588	29850	
4889	0	36624	30406	
4890	0	36256	32316	
4891	0	38794	32666	
4892	0	40634	32883	
4893	0	39632	32799	
4894	0	37734	31866	
4895	0	36978	32087	
4896	0	36280	33274	
4897	0	36020	34823	
4898	0	34410	34588	
4899	0	33656	32826	
4900	0	33532	31819	
4901	0	32464	32120	
4902	0	30748	32379	
4903	0	30715	32376	
4904	0	32773	32584	
4905	0	36554	32712	
4906	0	37820	32558	
4907	0	36692	32847	
4908	0	36424	31736	
4909	0	34188	32477	
4910	0	30489	33989	
4911	0	26202	33338	
4912	0	20978	31432	
4913	0	15560	30592	
4914	0	12593	32448	
4915	0	14046	33748	
4916	0	19812	35220	
4917	0	28524	35852	
4918	0	35276	35322	
4919	0	38262	33260	
4920	0	38858	31555	
4921	0	38624	31158	
4922	0	38373	30727	
4923	0	37404	30907	
4924	0	34877	30656	
4925	0	32624	30291	
4926	0	32760	30575	
4927	0	33792	30582	
4928	0	34612	30538	
4929	0	36441	31595	
4930	0	39717	34336	
4931	0	43560	35192	
4932	0	45960	33090	
4933	0	45696	33705	
4934	0	41984	36024	
4935	0	36256	35762	
4936	0	31782	34398	
4937	0	28024	33890	
4938	0	24938	31954	
4939	0	25210	30475	
4940	0	25810	28969	
4941	0	26736	31360	
4942	0	27312	32896	
4943	0	27444	35656	
4944	0	30124	36523	
4945	0	32208	33414	
4946	0	32240	30188	
4947	0	32752	27641	
4948	0	31282	28200	
4949	0	29888	33060	
4950	0	28877	33561	
4951	0	29996	33176	
4952	0	39136	34064	
4953	0	48496	35290	
4954	0	51120	34949	
4955	0	47122	33332	
4956	0	38888	32638	
4957	0	30138	33384	
4958	0	22128	33788	
4959	0	15189	33524	
4960	0	9766	34112	
4961	0	8791	34060	
4962	0	12938	33074	
4963	0	20208	32100	
4964	0	28146	32441	
4965	0	34064	33096	
4966	0	39588	32712	
4967	0	49536	31649	
4968	0	56928	31712	
4969	0	58012	31988	
4970	0	54162	32232	
4971	0	48135	31669	
4972	0	41420	32784	
4973	0	34208	33868	
4974	0	26306	34028	
4975	0	17528	34400	
4976	0	12238	33641	
4977	0	12440	32732	
4978	0	16338	32068	
4979	0	22520	32329	
4980	0	30382	32170	
4981	0	35477	31810	
4982	0	38594	32421	
4983	0	42016	31512	
4984	0	48024	31276	
4985	0	53328	30636	
4986	0	51260	30697	
4987	0	46744	31919	
4988	0	39666	33551	
4989	0	31720	34418	
4990	0	24156	34450	
4991	0	18182	33684	
4992	0	13460	32224	
4993	0	12150	32641	
4994	0	15638	33336	
4995	0	21179	35424	
4996	0	30232	35872	
4997	0	39146	33888	
4998	0	41906	33832	
4999	0	40248	33424	
5000	0	37504	33768	
5001	0	34038	32135	
5002	0	31528	29560	
5003	0	30292	28644	
5004	0	29540	28958	
5005	0	30756	31085	
5006	0	33020	32078	
5007	0	35280	31626	
5008	0	36912	32506	
5009	0	37520	34432	
5010	0	37793	35526	
5011	0	39938	34628	
5012	0	42252	34638	
5013	0	43162	34402	
5014	0	42360	34689	
5015	0	42312	32572	
5016	0	45064	28008	
5017	0	48192	26800	
5018	0	45984	29130	
5019	0	37136	34176	
5020	0	27661	37320	
5021	0	21612	37963	
5022	0	19594	34938	
5023	0	18036	32532	
5024	0	15736	30834	
5025	0	10187	28996	
5026	0	9506	29243	
5027	0	12859	30007	
5028	0	18192	32343	
5029	0	21504	35458	
5030	0	25953	35520	
5031	0	31690	34582	
5032	0	36416	34000	
5033	0	44072	32352	
5034	0	51356	31612	
5035	0	51040	32404	
5036	0	47720	33730	
5037	0	42906	34146	
5038	0	38120	33888	
5039	0	32420	32628	
5040	0	25740	31452	
5041	0	21060	31833	
5042	0	18620	33432	
5043	0	17912	32314	
5044	0	21316	32108	
5045	0	34080	31908	
5046	0	49185	32232	
5047	0	60224	33174	
5048	0	60828	33948	
5049	0	57520	34597	
5050	0	47092	35600	
5051	0	34108	35097	
5052	0	27020	33964	
5053	0	21033	33312	
5054	0	15784	31554	
5055	0	11232	28304	
5056	0	10957	26630	
5057	0	16356	31508	
5058	0	23194	34023	
5059	0	26648	35192	
5060	0	27935	35250	
5061	0	29921	32932	
5062	0	33780	31858	
5063	0	37186	32192	
5064	0	41674	31972	
5065	0	45060	31592	
5066	0	47472	32450	
5067	0	47120	32280	
5068	0	44252	32613	
5069	0	41479	32880	
5070	0	38688	32754	
5071	0	33920	33222	
5072	0	27952	34616	
5073	0	23784	34316	
5074	0	19568	31584	
5075	0	17293	32176	
5076	0	17896	33881	
5077	0	22560	31570	
5078	0	29060	30648	
5079	0	40864	30856	
5080	0	53720	29292	
5081	0	60736	30082	
5082	0	58312	32860	
5083	0	55104	33426	
5084	0	52240	33232	
5085	0	37914	32136	
5086	0	27456	31640	
5087	0	17048	31256	
5088	0	9238	33304	
5089	0	7302	35152	
5090	0	10130	35195	
5091	0	22140	35586	
5092	0	33990	33204	
5093	0	37982	30308	
5094	0	36518	30869	
5095	0	30826	32408	
5096	0	24156	34949	
5097	0	18418	36440	
5098	0	15332	36487	
5099	0	15479	34180	
5100	0	17441	33085	
5101	0	25796	33544	
5102	0	38770	33648	
5103	0	50612	33328	
5104	0	59692	31936	
5105	0	62656	31160	
5106	0	58088	30173	
5107	0	50728	30100	
5108	0	43228	30397	
5109	0	36126	31434	
5110	0	28081	32634	
5111	0	22120	34016	
5112	0	20084	34470	
5113	0	21096	33590	
5114	0	24316	32121	
5115	0	26894	32283	
5116	0	27425	31710	
5117	0	26704	32632	
5118	0	25166	35226	
5119	0	28184	35724	
5120	0	32884	35682	
5121	0	35460	33972	
5122	0	33252	30280	
5123	0	32164	27190	
5124	0	33745	26474	
5125	0	36960	31380	
5126	0	46482	35320	
5127	0	53894	35296	
5128	0	53752	33798	
5129	0	47328	32258	
5130	0	39276	28708	
5131	0	33053	30501	
5132	0	27656	35194	
5133	0	23580	39530	
5134	0	16216	39064	
5135	0	8590	36032	
5136	0	5970	36136	
5137	0	9120	36011	
5138	0	16273	33915	
5139	0	24852	30622	
5140	0	33380	26980	
5141	0	39995	25078	
5142	0	42962	25114	
5143	0	42816	26287	
5144	0	42640	27860	
5145	0	44476	30404	
5146	0	52116	31616	
5147	0	59256	33320	
5148	0	57056	34252	
5149	0	54018	34629	
5150	0	51314	32749	
5151	0	46336	32280	
5152	0	19508	33172	
5153	0	3317	35408	
5154	0	0	37718	
5155	0	1002	38340	
5156	0	5369	38091	
5157	0	9056	37362	
5158	0	12160	35033	
5159	0	30688	33096	
5160	0	45944	33172	
5161	0	53840	32468	
5162	0	57800	28472	
5163	0	62368	26944	
5164	0	59812	26507	
5165	0	56368	28738	
5166	0	53336	30718	
5167	0	34528	30596	
5168	0	19226	28488	
5169	0	9692	32008	
5170	0	5511	36976	
5171	0	4040	42866	
5172	0	8284	41132	
5173	0	15324	32352	
5174	0	24446	25928	
5175	0	35924	29248	
5176	0	47794	32392	
5177	0	54632	34594	
5178	0	55986	34538	
5179	0	53440	34264	
5180	0	47880	31719	
5181	0	39026	32585	
5182	0	30246	31796	
5183	0	22245	33168	
5184	0	17540	35154	
5185	0	14472	34006	
5186	0	17141	33604	
5187	0	23442	34444	
5188	0	29280	34260	
5189	0	32476	33324	
5190	0	34580	36069	
5191	0	37548	38016	
5192	0	39306	37108	
5193	0	41120	31988	
5194	0	38020	28380	
5195	0	32142	28972	
5196	0	27850	30598	
5197	0	27834	25132	
5198	0	36308	26488	
5199	0	44016	30852	
5200	0	47984	35656	
5201	0	51578	35700	
5202	0	53928	30672	
5203	0	48165	26461	
5204	0	37560	27240	
5205	0	26105	33538	
5206	0	18818	31896	
5207	0	15598	30992	
5208	0	13536	29242	
5209	0	10714	33160	
5210	0	10748	36969	
5211	0	14258	39924	
5212	0	21540	38970	
5213	0	34388	34838	
5214	0	46530	33520	
5215	0	47956	32280	
5216	0	47248	30836	
5217	0	45398	30678	
5218	0	41849	32871	
5219	0	40088	34042	
5220	0	37408	34256	
5221	0	33856	32744	
5222	0	27716	29628	
5223	0	19796	31514	
5224	0	17032	35659	
5225	0	15785	33196	
5226	0	20736	25258	
5227	0	26200	27224	
5228	0	29468	35752	
5229	0	32364	43694	
5230	0	37120	46332	
5231	0	40468	39956	
5232	0	43560	28828	
5233	0	47408	25869	
5234	0	47938	27565	
5235	0	44466	29426	
5236	0	37316	29272	
5237	0	33034	31068	
5238	0	33636	34638	
5239	0	33436	34173	
5240	0	33320	31560	
5241	0	32214	29660	
5242	0	30358	32412	
5243	0	29896	33260	
5244	0	28620	34123	
5245	0	31850	28548	
5246	0	40576	23506	
5247	0	41186	21680	
5248	0	37392	27171	
5249	0	35394	36740	
5250	0	34169	44712	
5251	0	33312	46180	
5252	0	32880	42775	
5253	0	32928	39239	
5254	0	27300	35628	
5255	0	18568	30900	
5256	0	11914	29728	
5257	0	7620	29427	
5258	0	8189	29588	
5259	0	28476	28724	
5260	0	51628	27992	
5261	0	62428	33108	
5262	0	61464	39696	
5263	0	56660	39549	
5264	0	42040	37092	
5265	0	30734	35792	
5266	0	21090	29644	
5267	0	8776	24128	
5268	0	2882	19778	
5269	0	6171	21229	
5270	0	14100	29732	
5271	0	38088	38065	
5272	0	50666	34168	
5273	0	51798	31490	
5274	0	44620	35616	
5275	0	35105	44184	
5276	0	30736	47490	
5277	0	30432	38576	
5278	0	34376	27924	
5279	0	34160	23962	
5280	0	35420	26498	
5281	0	41680	29636	
5282	0	46880	30880	
5283	0	48792	31269	
5284	0	49636	28584	
5285	0	48692	27284	
5286	0	31874	29932	
5287	0	12659	34380	
5288	0	0	39872	
5289	0	1876	43194	
5290	0	6053	39688	
5291	0	9616	31622	
5292	0	12647	25626	
5293	0	20736	25480	
5294	0	44688	27323	
5295	0	56016	27250	
5296	0	61408	30024	
5297	0	63508	33482	
5298	0	60552	36942	
5299	0	56966	38144	
5300	0	35912	40960	
5301	0	17058	45296	
5302	0	9254	44728	
5303	0	14220	35746	
5304	0	22664	29496	
5305	0	38408	27568	
5306	0	47122	29404	
5307	0	48336	25040	
5308	0	47408	18352	
5309	0	47440	26627	
5310	0	42744	34966	
5311	0	35904	37292	
5312	0	38076	35598	
5313	0	38164	31762	
5314	0	35608	22426	
5315	0	34966	21881	
5316	0	36282	31308	
5317	0	29446	38936	
5318	0	15936	44204	
5319	0	1264	43218	
5320	0	0	37656	
5321	0	4059	36840	
5322	0	7938	35008	
5323	0	11218	29528	
5324	0	14010	30574	
5325	0	16410	36357	
5326	0	38228	39184	
5327	0	65196	35556	
5328	0	65472	26864	
5329	0	65472	22628	
5330	0	61176	29704	
5331	0	49218	34306	
5332	0	31760	34112	
5333	0	21464	33786	
5334	0	15502	23608	
5335	0	8206	17753	
5336	0	6223	23640	
5337	0	16603	33088	
5338	0	27936	40704	
5339	0	38648	43696	
5340	0	47096	40888	
5341	0	52668	36764	
5342	0	60056	31028	
5343	0	59192	31133	
5344	0	56000	31202	
5345	0	53032	30912	
5346	0	50456	30832	
5347	0	38496	33292	
5348	0	24701	35314	
5349	0	13328	35396	
5350	0	5828	38304	
5351	0	585	38060	
5352	0	2288	32080	
5353	0	6320	35372	
5354	0	9827	39536	
5355	0	12826	34772	
5356	0	15384	25202	
5357	0	35444	16494	
5358	0	49192	14712	
5359	0	59036	20594	
5360	0	65458	33460	
5361	0	63576	44736	
5362	0	59500	48272	
5363	0	55968	40660	
5364	0	52976	30734	
5365	0	50400	27588	
5366	0	28152	28616	
5367	0	0	30348	
5368	0	0	35576	
5369	0	1132	37262	
5370	0	5528	36871	
5371	0	9184	34304	
5372	0	12280	30153	
5373	0	42208	34361	
5374	0	51360	37056	
5375	0	54104	34140	
5376	0	49016	28072	
5377	0	37632	27336	
5378	0	25456	29912	
5379	0	16930	29968	
5380	0	10715	30682	
5381	0	11537	33976	
5382	0	14170	38364	
5383	0	40852	32276	
5384	0	65456	28009	
5385	0	65464	30086	
5386	0	62800	33770	
5387	0	58724	37484	
5388	0	55296	30592	
5389	0	52396	23917	
5390	0	30080	30058	
5391	0	40	42412	
5392	0	0	46770	
5393	0	2023	37012	
5394	0	6275	25348	
5395	0	9818	30759	
5396	0	12828	33972	
5397	0	15393	32944	
5398	0	24116	34226	
5399	0	38650	35448	
5400	0	40572	34068	
5401	0	38992	33110	
5402	0	44418	30602	
5403	0	53766	33228	
5404	0	60616	30677	
5405	0	63712	26516	
5406	0	60448	31753	
5407	0	56880	37764	
5408	0	53748	36832	
5409	0	51064	29050	
5410	0	48746	25211	
5411	0	46748	27226	
5412	0	34796	31338	
5413	0	25061	36544	
5414	0	15745	35096	
5415	0	5860	33626	
5416	0	0	33236	
5417	0	0	34080	
5418	0	3659	37368	
5419	0	7600	30634	
5420	0	10910	27441	
5421	0	13744	26064	
5422	0	20288	27904	
5423	0	48316	29420	
5424	0	65458	33912	
5425	0	65464	37092	
5426	0	63088	41912	
5427	0	58972	41780	
5428	0	55504	36448	
5429	0	52576	29432	
5430	0	35044	27208	
5431	0	26102	27898	
5432	0	19392	35778	
5433	0	7003	43632	
5434	0	4361	37056	
5435	0	12718	31348	
5436	0	21938	26300	
5437	0	27428	28141	
5438	0	26488	31546	
5439	0	19928	34134	
5440	0	12862	38144	
5441	0	12824	31760	
5442	0	15204	30043	
5443	0	17422	34224	
5444	0	19357	33472	
5445	0	21049	30036	
5446	0	33672	26600	
5447	0	43225	28944	
5448	0	63684	32244	
5449	0	65474	34340	
5450	0	65472	39148	
5451	0	63914	34580	
5452	0	59640	23360	
5453	0	41948	24680	
5454	0	31432	33838	
5455	0	22906	43248	
5456	0	16580	35394	
5457	0	16392	29680	
5458	0	27976	33706	
5459	0	34580	37358	
5460	0	38836	40274	
5461	0	40354	39194	
5462	0	45492	36418	
5463	0	43592	35409	
5464	0	36272	28928	
5465	0	27768	24920	
5466	0	16602	26579	
5467	0	9405	29074	
5468	0	9498	26836	
5469	0	15064	30584	
5470	0	24644	31456	
5471	0	32656	29842	
5472	0	38612	35608	
5473	0	43288	38280	
5474	0	52956	42692	
5475	0	55770	35928	
5476	0	55360	25282	
5477	0	56604	26736	
5478	0	54034	26681	
5479	0	51384	25264	
5480	0	49032	30992	
5481	0	47000	36804	
5482	0	45228	38314	
5483	0	40728	39736	
5484	0	11504	45922	
5485	0	0	45856	
5486	0	0	30708	
5487	0	0	14880	
5488	0	3355	18910	
5489	0	7368	26944	
5490	0	10722	34544	
5491	0	13569	35538	
5492	0	16020	32840	
5493	0	38104	31768	
5494	0	46408	34336	
5495	0	51736	35272	
5496	0	53344	39214	
5497	0	47092	41234	
5498	0	44976	40037	
5499	0	47000	31956	
5500	0	50236	26176	
5501	0	57360	33248	
5502	0	55744	40292	
5503	0	52964	37314	
5504	0	50412	17744	
5505	0	48201	13086	
5506	0	22400	27648	
5507	0	7221	41860	
5508	0	0	40946	
5509	0	0	26810	
5510	0	3667	25282	
5511	0	7616	30584	
5512	0	10925	35408	
5513	0	31378	38304	
5514	0	51242	34968	
5515	0	63928	41440	
5516	0	63720	47332	
5517	0	59856	39506	
5518	0	56288	34720	
5519	0	53240	37612	
5520	0	38584	35808	
5521	0	10956	21508	
5522	0	360	16872	
5523	0	0	24276	
5524	0	4424	30456	
5525	0	8255	33287	
5526	0	11486	33358	
5527	0	46680	30920	
5528	0	55466	17800	
5529	0	53488	11553	
5530	0	49225	22968	
5531	0	46820	46576	
5532	0	54336	58944	
5533	0	55324	56196	
5534	0	52834	41192	
5535	0	45668	28328	
5536	0	29408	24808	
5537	0	23224	25996	
5538	0	26184	29512	
5539	0	25438	30084	
5540	0	16264	32732	
5541	0	6448	35936	
5542	0	1853	37284	
5543	0	5425	39600	
5544	0	9042	38700	
5545	0	12152	29314	
5546	0	14804	25904	
5547	0	17092	29723	
5548	0	34720	35136	
5549	0	52620	35116	
5550	0	62760	32228	
5551	0	63488	32412	
5552	0	61188	30266	
5553	0	59524	30592	
5554	0	55264	37008	
5555	0	48482	41294	
5556	0	43120	37264	
5557	0	34316	27512	
5558	0	28120	25889	
5559	0	24609	25085	
5560	0	22092	24008	
5561	0	25922	26332	
5562	0	35856	26296	
5563	0	42608	28228	
5564	0	46353	32196	
5565	0	42304	31880	
5566	0	33856	31268	
5567	0	27720	31440	
5568	0	22005	37620	
5569	0	22440	45248	
5570	0	17456	37884	
5571	0	9496	30796	
5572	0	3526	39584	
5573	0	6184	43972	
5574	0	9626	33164	
5575	0	12632	21424	
5576	0	15236	22265	
5577	0	38988	27652	
5578	0	54282	34730	
5579	0	63032	40752	
5580	0	61426	43272	
5581	0	56648	38314	
5582	0	50225	36642	
5583	0	40328	36560	
5584	0	30748	34632	
5585	0	24944	32446	
5586	0	16800	35696	
5587	0	8720	39032	
5588	0	6745	31444	
5589	0	9680	26880	
5590	0	13026	32760	
5591	0	22652	40454	
5592	0	28756	36296	
5593	0	37416	23578	
5594	0	48604	22860	
5595	0	63640	25629	
5596	0	65476	28650	
5597	0	62300	26188	
5598	0	58332	19809	
5599	0	54992	26013	
5600	0	52136	31876	
5601	0	49680	32832	
5602	0	25032	33360	
5603	0	6741	34320	
5604	0	0	33612	
5605	0	0	33970	
5606	0	4210	32748	
5607	0	8076	32028	
5608	0	11322	37968	
5609	0	14108	42552	
5610	0	16508	41962	
5611	0	40348	38876	
5612	0	53184	31340	
5613	0	60856	27173	
5614	0	65428	33004	
5615	0	63084	41852	
5616	0	59124	34436	
5617	0	49401	29600	
5618	0	37168	35566	
5619	0	26222	38736	
5620	0	19141	30640	
5621	0	17716	22900	
5622	0	21800	20888	
5623	0	27368	23510	
5624	0	34792	28548	
5625	0	41872	32808	
5626	0	49112	43052	
5627	0	54092	49460	
5628	0	52984	45484	
5629	0	50580	39036	
5630	0	48352	31968	
5631	0	36896	26560	
5632	0	18516	23712	
5633	0	3718	21364	
5634	0	0	19684	
5635	0	0	26386	
5636	0	3919	35680	
5637	0	7824	41138	
5638	0	11116	39924	
5639	0	13908	35874	
5640	0	18256	34804	
5641	0	43792	29676	
5642	0	54402	27088	
5643	0	61132	30872	
5644	0	63648	29782	
5645	0	62016	24310	
5646	0	58320	29820	
5647	0	55000	37616	
5648	0	52144	41004	
5649	0	40500	36480	
5650	0	27476	37056	
5651	0	20304	38538	
5652	0	17428	37800	
5653	0	18222	35154	
5654	0	21130	33312	
5655	0	26634	29476	
5656	0	31426	26396	
5657	0	31072	23965	
5658	0	28610	27394	
5659	0	23048	28760	
5660	0	15449	28932	
5661	0	9758	31236	
5662	0	9764	38330	
5663	0	16004	39920	
5664	0	24922	41290	
5665	0	36344	37264	
5666	0	48224	35264	
5667	0	57880	33972	
5668	0	63280	30794	
5669	0	60736	29216	
5670	0	57156	32307	
5671	0	53988	32210	
5672	0	44602	29876	
5673	0	20664	31760	
5674	0	4673	34148	
5675	0	0	34884	
5676	0	2822	37036	
5677	0	6906	36408	
5678	0	10344	32456	
5679	0	32648	33232	
5680	0	44188	35218	
5681	0	48864	28344	
5682	0	48672	21256	
5683	0	45178	27526	
5684	0	38840	39102	
5685	0	31196	34492	
5686	0	26508	22472	
5687	0	28328	23838	
5688	0	33764	27804	
5689	0	41338	32444	
5690	0	48568	34208	
5691	0	50312	39376	
5692	0	46700	37208	
5693	0	42297	36578	
5694	0	39844	36748	
5695	0	39160	33482	
5696	0	35308	31064	
5697	0	30798	32994	
5698	0	25672	33308	
5699	0	22336	32410	
5700	0	17748	31226	
5701	0	16312	29908	
5702	0	16434	28076	
5703	0	19996	28658	
5704	0	25720	39868	
5705	0	30460	52040	
5706	0	36512	46152	
5707	0	42080	34148	
5708	0	44400	29712	
5709	0	41808	28485	
5710	0	36580	24436	
5711	0	36010	26612	
5712	0	36324	30624	
5713	0	33532	33444	
5714	0	26144	30476	
5715	0	19616	29848	
5716	0	19476	31476	
5717	0	18524	34568	
5718	0	18016	32364	
5719	0	24672	30216	
5720	0	31468	33170	
5721	0	40772	30684	
5722	0	45980	31106	
5723	0	47026	32982	
5724	0	45786	34068	
5725	0	45358	32252	
5726	0	46776	28304	
5727	0	45860	28048	
5728	0	42662	35220	
5729	0	39972	39878	
5730	0	35852	34888	
5731	0	28904	33290	
5732	0	19856	33168	
5733	0	13736	32452	
5734	0	18146	30534	
5735	0	25037	29227	
5736	0	28660	27432	
5737	0	29748	32276	
5738	0	26426	35824	
5739	0	21528	35474	
5740	0	16242	34576	
5741	0	19118	30276	
5742	0	29384	31288	
5743	0	36818	35448	
5744	0	40512	34900	
5745	0	41744	33914	
5746	0	41660	34877	
5747	0	39776	38596	
5748	0	37578	36424	
5749	0	34810	35016	
5750	0	32150	34867	
5751	0	31636	31513	
5752	0	33570	24420	
5753	0	34944	25054	
5754	0	36568	29772	
5755	0	39992	30428	
5756	0	43526	29464	
5757	0	43456	31324	
5758	0	42058	32660	
5759	0	41294	34784	
5760	0	41032	38988	
