# OpenSignals Text File Format
# {"00:07:80:3B:46:58": {"sensor": ["EMG", "EMG"], "device name": "00:07:80:3B:46:58", "column": ["nSeq", "DI", "ACC X", "ACC Y"], "sync interval": 2, "time": "16:5:50.483", "comments": "", "device connection": "BTH00:07:80:3B:46:58", "channels": [1, 2], "date": "2016-8-24", "mode": 0, "digital IO": [0, 1], "firmware version": 772, "device": "biosignalsplux", "position": 0, "sampling rate": 1000, "label": ["ACC X", "ACC Y"], "resolution": [16, 16], "special": [{}, {}]}}
# EndOfHeader
0	0	39468	32282	
1	0	41956	32197	
2	0	43082	31424	
3	0	43079	31888	
4	0	39760	31708	
5	0	35368	32523	
6	0	31106	33200	
7	0	26372	32423	
8	0	23202	33504	
9	0	21088	33690	
10	0	20523	33268	
11	0	23218	32044	
12	0	25210	32047	
13	0	33321	32573	
14	0	41177	33280	
15	0	48728	33970	
16	0	49036	34256	
17	0	44540	34148	
18	0	38208	33326	
19	0	35073	33106	
20	0	31560	32888	
21	0	32186	33144	
22	0	29452	33708	
23	0	24458	33050	
24	0	25580	33031	
25	0	28144	32493	
26	0	29200	32293	
27	0	28136	31924	
28	0	23732	31942	
29	0	21035	31370	
30	0	21626	31490	
31	0	21968	31442	
32	0	27100	31890	
33	0	32313	31239	
34	0	35740	31466	
35	0	37588	31869	
36	0	39026	34000	
37	0	41704	34588	
38	0	47632	34565	
39	0	51512	33662	
40	0	50856	32228	
41	0	46804	31549	
42	0	38208	32788	
43	0	31360	33766	
44	0	26156	33576	
45	0	22224	34564	
46	0	17988	32464	
47	0	18186	31124	
48	0	20708	31036	
49	0	23996	31337	
50	0	25390	32366	
51	0	27522	33946	
52	0	29520	35080	
53	0	33595	34308	
54	0	35609	33304	
55	0	35396	32602	
56	0	33472	32440	
57	0	33214	31538	
58	0	33984	32050	
59	0	34188	32275	
60	0	34721	32642	
61	0	37884	32833	
62	0	41112	32600	
63	0	42894	32656	
64	0	42644	33482	
65	0	45085	33152	
66	0	43646	33564	
67	0	41458	33697	
68	0	35730	33440	
69	0	30520	33428	
70	0	26906	32985	
71	0	21320	31928	
72	0	20552	31463	
73	0	19408	31602	
74	0	17540	31458	
75	0	15891	31768	
76	0	22628	31200	
77	0	30013	31476	
78	0	34756	32196	
79	0	39306	32306	
80	0	41734	31552	
81	0	43676	32218	
82	0	46220	32608	
83	0	45348	32699	
84	0	41604	32839	
85	0	36776	32962	
86	0	31058	32592	
87	0	28013	33009	
88	0	27788	33632	
89	0	29609	33832	
90	0	28600	33867	
91	0	30048	33383	
92	0	32376	32692	
93	0	37227	32530	
94	0	39482	32258	
95	0	39136	35179	
96	0	37152	35271	
97	0	33070	34034	
98	0	24494	32688	
99	0	22476	32858	
100	0	26390	33287	
101	0	28772	33520	
102	0	25768	33642	
103	0	31682	33472	
104	0	42250	33160	
105	0	47224	32212	
106	0	49392	31622	
107	0	47012	30718	
108	0	40762	30100	
109	0	33624	31464	
110	0	26644	31139	
111	0	19376	31168	
112	0	11705	31818	
113	0	5836	33288	
114	0	6718	34528	
115	0	9941	34272	
116	0	20194	34016	
117	0	40432	33040	
118	0	54192	32064	
119	0	62016	31512	
120	0	61720	30855	
121	0	54668	30629	
122	0	45194	30694	
123	0	35464	31852	
124	0	24922	33432	
125	0	15286	34852	
126	0	9052	34442	
127	0	9198	34070	
128	0	12082	33074	
129	0	26208	32384	
130	0	40872	32892	
131	0	45488	34156	
132	0	44634	34661	
133	0	42656	34032	
134	0	42256	33883	
135	0	43476	33620	
136	0	38578	33104	
137	0	34244	32842	
138	0	29114	31706	
139	0	22228	30446	
140	0	19077	30546	
141	0	19808	30804	
142	0	22456	31502	
143	0	26724	31912	
144	0	35360	34009	
145	0	38788	34228	
146	0	40844	33358	
147	0	40040	32604	
148	0	37968	31943	
149	0	37409	31926	
150	0	37536	32226	
151	0	36917	31946	
152	0	36787	32204	
153	0	35712	33067	
154	0	31138	32710	
155	0	26688	33436	
156	0	24966	33220	
157	0	25412	32458	
158	0	28192	31778	
159	0	34360	31362	
160	0	41088	32196	
161	0	47080	33952	
162	0	52162	35044	
163	0	51648	34285	
164	0	47768	33079	
165	0	40364	32568	
166	0	36304	32721	
167	0	31224	32650	
168	0	19112	31896	
169	0	8258	31756	
170	0	10280	32021	
171	0	17085	33188	
172	0	21010	34213	
173	0	26980	33880	
174	0	30025	33142	
175	0	29714	33088	
176	0	32188	32918	
177	0	40152	32144	
178	0	45084	31873	
179	0	44760	31521	
180	0	42808	31994	
181	0	36005	32550	
182	0	24928	32876	
183	0	17518	32624	
184	0	16450	34060	
185	0	17690	34571	
186	0	21078	32684	
187	0	29380	33446	
188	0	38348	33680	
189	0	51816	32768	
190	0	53928	32288	
191	0	48906	31397	
192	0	42076	30979	
193	0	37796	30377	
194	0	32976	30338	
195	0	29120	31833	
196	0	24628	33272	
197	0	24288	33522	
198	0	27373	33047	
199	0	28344	32871	
200	0	30599	32978	
201	0	31002	33528	
202	0	28360	34102	
203	0	27668	34648	
204	0	29002	34732	
205	0	30400	33414	
206	0	32328	32169	
207	0	36482	30047	
208	0	38464	29160	
209	0	38096	30407	
210	0	37700	32991	
211	0	37776	33814	
212	0	39360	33075	
213	0	39834	32366	
214	0	40104	32864	
215	0	39900	35369	
216	0	44218	37608	
217	0	45000	36627	
218	0	45586	33858	
219	0	43960	32932	
220	0	33732	31888	
221	0	24684	30524	
222	0	20544	30258	
223	0	20860	30425	
224	0	18328	30768	
225	0	13252	31208	
226	0	13262	32272	
227	0	16856	32848	
228	0	19896	33678	
229	0	22934	34485	
230	0	31603	34618	
231	0	36768	34374	
232	0	39584	33636	
233	0	38564	32630	
234	0	34280	32272	
235	0	31740	32098	
236	0	29024	32498	
237	0	28056	32128	
238	0	35262	32596	
239	0	41416	32568	
240	0	43402	32802	
241	0	41920	32537	
242	0	39356	31990	
243	0	38152	31810	
244	0	37264	31308	
245	0	32903	31276	
246	0	30884	32696	
247	0	30176	32600	
248	0	27744	33382	
249	0	27772	33218	
250	0	31764	33314	
251	0	37968	33602	
252	0	41296	33484	
253	0	38636	33561	
254	0	35772	33020	
255	0	33810	32590	
256	0	32669	32240	
257	0	37382	31782	
258	0	38616	31421	
259	0	35898	31470	
260	0	33954	31812	
261	0	32317	33050	
262	0	31124	33112	
263	0	29257	33386	
264	0	26212	32900	
265	0	22732	33256	
266	0	18410	33087	
267	0	17064	33146	
268	0	22504	32659	
269	0	36482	33232	
270	0	43596	32940	
271	0	44370	33426	
272	0	42452	33704	
273	0	40128	32909	
274	0	40274	32580	
275	0	37346	33313	
276	0	30264	33432	
277	0	22388	33520	
278	0	17308	32670	
279	0	19172	32494	
280	0	22820	32230	
281	0	24493	32088	
282	0	26112	32205	
283	0	34196	32066	
284	0	39912	32072	
285	0	44662	31184	
286	0	51064	31816	
287	0	57560	33632	
288	0	55972	33954	
289	0	49576	32848	
290	0	39218	32330	
291	0	28716	31620	
292	0	20696	32330	
293	0	15092	33526	
294	0	17048	35824	
295	0	17888	36770	
296	0	24004	35974	
297	0	28030	32995	
298	0	33156	31728	
299	0	39920	30948	
300	0	39498	29989	
301	0	34576	29912	
302	0	29488	30798	
303	0	24506	31548	
304	0	22160	31758	
305	0	23304	31480	
306	0	24179	31728	
307	0	24332	32412	
308	0	27978	32638	
309	0	34434	33116	
310	0	34973	32772	
311	0	36864	32848	
312	0	37646	32893	
313	0	38741	34330	
314	0	41400	34580	
315	0	43760	32581	
316	0	45010	31290	
317	0	49031	31230	
318	0	47111	32538	
319	0	40426	33243	
320	0	33764	33252	
321	0	27368	34120	
322	0	22316	34658	
323	0	20893	33790	
324	0	24540	34100	
325	0	26460	34001	
326	0	25206	33347	
327	0	23592	32650	
328	0	25544	32295	
329	0	30370	32416	
330	0	35846	31596	
331	0	38920	30825	
332	0	41428	31664	
333	0	45372	33267	
334	0	43390	34722	
335	0	38362	33937	
336	0	31641	32848	
337	0	26260	31832	
338	0	22841	32246	
339	0	23544	31684	
340	0	26157	32201	
341	0	27430	32751	
342	0	27104	33376	
343	0	27977	33420	
344	0	31622	33275	
345	0	34288	33918	
346	0	40418	33588	
347	0	41976	32950	
348	0	40115	32762	
349	0	38172	32756	
350	0	39736	32970	
351	0	44118	32660	
352	0	50716	32424	
353	0	54692	32578	
354	0	52704	33044	
355	0	50283	32880	
356	0	31161	32268	
357	0	18796	31820	
358	0	12204	31228	
359	0	6848	30240	
360	0	2624	29749	
361	0	6381	31412	
362	0	15672	32797	
363	0	24480	33122	
364	0	34352	32768	
365	0	36672	32320	
366	0	34924	32770	
367	0	32333	33378	
368	0	28788	33509	
369	0	29632	33084	
370	0	33645	32189	
371	0	39616	31960	
372	0	48616	32372	
373	0	51056	33148	
374	0	50068	33378	
375	0	50328	33962	
376	0	45350	34100	
377	0	36860	32808	
378	0	30214	33716	
379	0	25760	34052	
380	0	21796	32596	
381	0	18392	31208	
382	0	18092	29924	
383	0	19900	29920	
384	0	19262	29446	
385	0	20028	32183	
386	0	25216	35292	
387	0	30328	36712	
388	0	33776	34528	
389	0	37403	33479	
390	0	36740	33600	
391	0	37410	33764	
392	0	38090	32654	
393	0	36144	33507	
394	0	34393	33493	
395	0	35808	33088	
396	0	37018	32876	
397	0	37022	33061	
398	0	37597	33568	
399	0	37533	33488	
400	0	35905	31956	
401	0	36073	29826	
402	0	36684	29499	
403	0	35314	31071	
404	0	35884	32751	
405	0	34912	31717	
406	0	34701	30777	
407	0	34276	31426	
408	0	34768	33568	
409	0	37724	36232	
410	0	41440	35610	
411	0	37882	34174	
412	0	32704	32800	
413	0	27722	31684	
414	0	24780	31773	
415	0	22405	32414	
416	0	23257	31782	
417	0	25368	32492	
418	0	29234	32647	
419	0	34722	32880	
420	0	39268	32948	
421	0	42600	32805	
422	0	44144	32970	
423	0	41372	33587	
424	0	35470	33798	
425	0	33202	33526	
426	0	40024	32758	
427	0	37620	32836	
428	0	35904	32602	
429	0	38530	31510	
430	0	40394	31735	
431	0	33300	32378	
432	0	23252	33006	
433	0	14568	33036	
434	0	11444	31908	
435	0	10194	32340	
436	0	7004	32444	
437	0	13588	33317	
438	0	20234	33036	
439	0	26522	31987	
440	0	35912	31206	
441	0	36212	31568	
442	0	34141	32058	
443	0	38376	32993	
444	0	41348	34750	
445	0	38780	33799	
446	0	34212	34098	
447	0	31356	33539	
448	0	31748	31296	
449	0	32792	30540	
450	0	35072	30310	
451	0	37418	31649	
452	0	37894	33153	
453	0	38944	32800	
454	0	40306	33202	
455	0	40553	33675	
456	0	41356	34394	
457	0	42544	35226	
458	0	37258	33768	
459	0	30100	32118	
460	0	27964	33064	
461	0	29268	33603	
462	0	30822	32139	
463	0	32376	31680	
464	0	32778	32445	
465	0	33532	32668	
466	0	35652	33467	
467	0	36830	32700	
468	0	38988	32344	
469	0	40272	32175	
470	0	38960	32949	
471	0	37682	34135	
472	0	39298	33886	
473	0	36192	33336	
474	0	33038	32606	
475	0	28628	31750	
476	0	26106	31158	
477	0	23506	30976	
478	0	22520	31796	
479	0	31968	32864	
480	0	38272	34264	
481	0	38716	34298	
482	0	33916	33636	
483	0	26004	32832	
484	0	22712	33339	
485	0	20880	32868	
486	0	16528	32161	
487	0	13888	31776	
488	0	15381	32277	
489	0	21752	32855	
490	0	24944	32444	
491	0	29241	32202	
492	0	33296	32225	
493	0	38402	32760	
494	0	42800	33092	
495	0	45482	33004	
496	0	47296	32300	
497	0	46960	31864	
498	0	45728	32016	
499	0	42692	31322	
500	0	39801	30662	
501	0	37225	31180	
502	0	36779	32162	
503	0	35300	32983	
504	0	31688	33776	
505	0	28300	33357	
506	0	29048	34045	
507	0	30792	35162	
508	0	34756	35257	
509	0	35696	34376	
510	0	33616	33304	
511	0	32988	32829	
512	0	32528	32859	
513	0	30636	32994	
514	0	30896	32748	
515	0	26308	32764	
516	0	25958	31905	
517	0	29584	31716	
518	0	32616	31867	
519	0	31234	32411	
520	0	31864	32462	
521	0	32320	31850	
522	0	33415	31931	
523	0	34562	31578	
524	0	34672	31780	
525	0	34248	32178	
526	0	34828	32965	
527	0	35156	33573	
528	0	33774	33115	
529	0	32132	32240	
530	0	28688	33388	
531	0	24760	35240	
532	0	24436	35143	
533	0	25540	33814	
534	0	27432	32632	
535	0	31408	32168	
536	0	37744	32064	
537	0	43496	32362	
538	0	50776	32281	
539	0	51160	32105	
540	0	43744	32288	
541	0	33668	32734	
542	0	25309	32816	
543	0	21140	32192	
544	0	17692	31463	
545	0	19532	31694	
546	0	22642	32792	
547	0	28932	34354	
548	0	40080	34776	
549	0	46756	33284	
550	0	48840	32451	
551	0	46808	31912	
552	0	43036	32585	
553	0	37934	33132	
554	0	31293	33168	
555	0	25304	32968	
556	0	23335	32123	
557	0	22973	32434	
558	0	21914	31765	
559	0	23200	30672	
560	0	28712	30516	
561	0	37634	30648	
562	0	41764	31055	
563	0	38616	31977	
564	0	32086	33128	
565	0	27603	34488	
566	0	23205	34620	
567	0	20676	35026	
568	0	22505	34269	
569	0	24370	33519	
570	0	28048	33692	
571	0	33792	33338	
572	0	39680	33792	
573	0	45101	33368	
574	0	46040	32952	
575	0	43200	33536	
576	0	45972	33304	
577	0	44410	32652	
578	0	42960	31800	
579	0	42180	31847	
580	0	39088	31954	
581	0	33509	31842	
582	0	28392	32622	
583	0	21872	33096	
584	0	18432	31792	
585	0	17669	31052	
586	0	19251	31407	
587	0	25548	32130	
588	0	31258	32909	
589	0	32884	33810	
590	0	31476	33706	
591	0	27154	33268	
592	0	23593	32440	
593	0	26074	32675	
594	0	25732	32770	
595	0	26128	33037	
596	0	28202	32976	
597	0	38712	32272	
598	0	41964	32156	
599	0	41513	32007	
600	0	40066	32002	
601	0	40336	32080	
602	0	43014	32654	
603	0	41320	32585	
604	0	37766	31614	
605	0	37152	32189	
606	0	35534	33380	
607	0	34246	34096	
608	0	34642	34130	
609	0	35666	32859	
610	0	34548	32955	
611	0	31268	32082	
612	0	26064	31649	
613	0	22844	32024	
614	0	22204	32864	
615	0	20185	33736	
616	0	21728	33731	
617	0	26884	32632	
618	0	32092	32048	
619	0	39928	32632	
620	0	45280	33302	
621	0	45528	34012	
622	0	43616	34568	
623	0	43228	35022	
624	0	43000	32762	
625	0	41748	31034	
626	0	38546	32871	
627	0	35877	34444	
628	0	31682	33400	
629	0	25288	32366	
630	0	24805	31482	
631	0	25800	30754	
632	0	26052	31286	
633	0	26173	31332	
634	0	23997	31412	
635	0	22069	32590	
636	0	21488	33517	
637	0	23190	33771	
638	0	24926	32938	
639	0	26154	33013	
640	0	26480	33999	
641	0	30774	33730	
642	0	38164	32304	
643	0	44184	32224	
644	0	45554	31764	
645	0	44756	31793	
646	0	44781	32464	
647	0	44264	33042	
648	0	41224	32704	
649	0	35272	32144	
650	0	30948	32116	
651	0	28668	32435	
652	0	26856	32602	
653	0	26004	32884	
654	0	27096	33324	
655	0	30067	33108	
656	0	34044	32190	
657	0	34836	32354	
658	0	34544	32365	
659	0	39778	32336	
660	0	42228	32351	
661	0	43032	31948	
662	0	38578	32466	
663	0	33760	33584	
664	0	29452	34008	
665	0	27566	33792	
666	0	26216	32775	
667	0	24964	32647	
668	0	25364	32980	
669	0	23882	33812	
670	0	23612	32978	
671	0	28347	33116	
672	0	32216	32148	
673	0	35040	31507	
674	0	34080	31525	
675	0	31640	31972	
676	0	30585	32972	
677	0	32554	33452	
678	0	32545	32960	
679	0	33132	32525	
680	0	31292	31953	
681	0	29658	33109	
682	0	28256	33181	
683	0	28098	32806	
684	0	29144	33914	
685	0	31696	34408	
686	0	33930	33441	
687	0	37848	32456	
688	0	40418	32317	
689	0	40891	32064	
690	0	41044	32715	
691	0	39729	34126	
692	0	38576	34269	
693	0	37112	33253	
694	0	35776	31769	
695	0	35921	31583	
696	0	35090	32292	
697	0	34156	32810	
698	0	33476	33386	
699	0	31506	32519	
700	0	33001	32263	
701	0	34843	32545	
702	0	33424	33259	
703	0	32468	32162	
704	0	30020	30154	
705	0	27528	29988	
706	0	26300	31480	
707	0	29120	32495	
708	0	30896	31682	
709	0	31991	31780	
710	0	31296	32345	
711	0	30838	34112	
712	0	30520	36202	
713	0	30000	37328	
714	0	31996	35526	
715	0	33685	33719	
716	0	34928	33154	
717	0	35816	32053	
718	0	36624	31672	
719	0	34088	31154	
720	0	31944	31523	
721	0	30282	32084	
722	0	31650	32471	
723	0	30825	32988	
724	0	29452	32818	
725	0	28116	32400	
726	0	29856	32145	
727	0	33065	31976	
728	0	34610	32668	
729	0	36545	33147	
730	0	36076	32454	
731	0	34792	32443	
732	0	32089	32938	
733	0	29820	33908	
734	0	28030	34288	
735	0	31304	33231	
736	0	31190	31780	
737	0	31736	31717	
738	0	32372	31175	
739	0	34984	32446	
740	0	38000	32514	
741	0	38969	33170	
742	0	40141	33954	
743	0	41236	33092	
744	0	39620	32823	
745	0	35940	32795	
746	0	32684	32797	
747	0	31904	33202	
748	0	29920	32866	
749	0	31884	32964	
750	0	36924	32972	
751	0	38994	32817	
752	0	34564	32553	
753	0	27040	32000	
754	0	21673	31008	
755	0	21228	30862	
756	0	23142	31640	
757	0	23620	33342	
758	0	24795	34007	
759	0	29634	33730	
760	0	31665	32511	
761	0	33032	33306	
762	0	34658	34434	
763	0	34730	34160	
764	0	38620	33679	
765	0	34120	33956	
766	0	30102	33672	
767	0	28558	32701	
768	0	32848	31404	
769	0	35586	31333	
770	0	34698	31290	
771	0	34880	31444	
772	0	35106	31371	
773	0	37168	32412	
774	0	47464	31800	
775	0	44700	30761	
776	0	38912	31371	
777	0	32844	32480	
778	0	28240	32496	
779	0	24568	33754	
780	0	21066	34432	
781	0	17838	34168	
782	0	18074	33264	
783	0	21476	31602	
784	0	27920	32104	
785	0	37960	33848	
786	0	40700	34400	
787	0	42936	34749	
788	0	44434	33486	
789	0	44133	31978	
790	0	40288	31773	
791	0	38184	30976	
792	0	32210	30685	
793	0	32476	30568	
794	0	36234	31796	
795	0	35260	34688	
796	0	36786	37493	
797	0	37032	37184	
798	0	35304	35955	
799	0	38048	33636	
800	0	35680	30914	
801	0	29570	29570	
802	0	37034	29594	
803	0	37484	29757	
804	0	33568	30804	
805	0	30624	31478	
806	0	24698	30184	
807	0	19240	31536	
808	0	15744	33512	
809	0	13736	33996	
810	0	14783	32740	
811	0	16502	33596	
812	0	15884	35210	
813	0	18425	37222	
814	0	27744	37168	
815	0	43112	35296	
816	0	54676	32722	
817	0	61056	31344	
818	0	63110	30942	
819	0	59428	31319	
820	0	40480	31004	
821	0	26349	31852	
822	0	16344	31970	
823	0	11629	31988	
824	0	12172	33052	
825	0	15684	32791	
826	0	20390	33708	
827	0	27436	33912	
828	0	35840	33293	
829	0	40762	32074	
830	0	45968	31720	
831	0	45708	32770	
832	0	43738	32976	
833	0	43520	32609	
834	0	39952	32870	
835	0	35067	32780	
836	0	29369	32528	
837	0	24916	32314	
838	0	22669	31532	
839	0	24316	30660	
840	0	25800	29984	
841	0	28572	31128	
842	0	31010	33010	
843	0	32146	33632	
844	0	34860	33685	
845	0	38725	32798	
846	0	39790	32276	
847	0	40708	32685	
848	0	43272	33056	
849	0	49888	33504	
850	0	49658	33780	
851	0	45720	33422	
852	0	40220	33510	
853	0	40178	33845	
854	0	37844	32891	
855	0	25932	33088	
856	0	17046	32424	
857	0	14068	31126	
858	0	16110	31282	
859	0	18904	31638	
860	0	24362	33161	
861	0	33624	34068	
862	0	36464	33935	
863	0	39480	34544	
864	0	42832	33010	
865	0	40832	32950	
866	0	45428	33788	
867	0	51176	32045	
868	0	41696	31832	
869	0	31120	31700	
870	0	20692	33220	
871	0	13988	33088	
872	0	9820	31896	
873	0	13701	31613	
874	0	25324	31694	
875	0	29520	32605	
876	0	29464	34244	
877	0	32256	34968	
878	0	43514	33924	
879	0	44551	33866	
880	0	44208	33225	
881	0	46664	31410	
882	0	45016	29405	
883	0	39970	30112	
884	0	35372	31918	
885	0	31076	33272	
886	0	29366	34565	
887	0	30500	33841	
888	0	28928	32512	
889	0	24240	32456	
890	0	23264	32848	
891	0	27812	32992	
892	0	27684	32882	
893	0	23072	32280	
894	0	24432	31056	
895	0	24208	31431	
896	0	29501	31572	
897	0	35748	31704	
898	0	36544	31406	
899	0	34880	31566	
900	0	33528	32105	
901	0	29308	33184	
902	0	24202	33718	
903	0	21378	33927	
904	0	18728	33570	
905	0	15344	33224	
906	0	17056	33863	
907	0	23184	32896	
908	0	33652	33034	
909	0	41300	33596	
910	0	41780	33935	
911	0	43492	33609	
912	0	48964	33256	
913	0	55690	33520	
914	0	53112	33391	
915	0	46792	32302	
916	0	40522	33267	
917	0	36502	33336	
918	0	35468	32517	
919	0	34416	31431	
920	0	34969	31687	
921	0	34189	32440	
922	0	33062	31890	
923	0	32516	32338	
924	0	30105	31580	
925	0	35276	31750	
926	0	39600	32800	
927	0	37872	33276	
928	0	32928	33986	
929	0	30050	34949	
930	0	28796	34440	
931	0	29349	33426	
932	0	30264	31817	
933	0	28276	30732	
934	0	25088	30908	
935	0	22340	31390	
936	0	22358	32378	
937	0	25516	33696	
938	0	31480	33346	
939	0	35058	32234	
940	0	37480	32216	
941	0	41930	32018	
942	0	42050	32466	
943	0	41116	31992	
944	0	42140	32212	
945	0	35780	33304	
946	0	30930	33998	
947	0	31490	34516	
948	0	41032	34448	
949	0	39024	33901	
950	0	33524	33248	
951	0	29344	33497	
952	0	27460	33576	
953	0	29388	33287	
954	0	31058	32093	
955	0	28992	31782	
956	0	29528	31482	
957	0	29021	32232	
958	0	26316	31936	
959	0	23069	31842	
960	0	21988	32165	
961	0	19936	32384	
962	0	19568	31604	
963	0	22301	31188	
964	0	34648	32506	
965	0	49068	33824	
966	0	61672	32377	
967	0	60564	32800	
968	0	57124	33057	
969	0	46232	32254	
970	0	36296	33476	
971	0	30288	33584	
972	0	32142	32125	
973	0	32306	32484	
974	0	33645	33879	
975	0	26664	31888	
976	0	17238	30848	
977	0	15977	33998	
978	0	16916	33559	
979	0	22626	31964	
980	0	29232	32064	
981	0	27306	31940	
982	0	20499	30881	
983	0	12537	32480	
984	0	12990	34820	
985	0	25516	34521	
986	0	31024	33005	
987	0	26196	32416	
988	0	25560	32044	
989	0	28000	32293	
990	0	31024	34311	
991	0	34688	35458	
992	0	40370	35448	
993	0	44060	34876	
994	0	42130	33870	
995	0	36230	34000	
996	0	31536	32644	
997	0	29272	31993	
998	0	27400	31239	
999	0	31400	30884	
1000	0	39960	30740	
1001	0	46044	31240	
1002	0	48024	32560	
1003	0	46960	31972	
1004	0	46320	31751	
1005	0	44000	33364	
1006	0	41094	34311	
1007	0	38638	33423	
1008	0	34234	33460	
1009	0	30176	32752	
1010	0	26512	33196	
1011	0	26624	33184	
1012	0	40712	32320	
1013	0	44260	31583	
1014	0	40002	30718	
1015	0	35706	30966	
1016	0	32386	32394	
1017	0	26544	32364	
1018	0	25620	31655	
1019	0	24930	31232	
1020	0	26024	32948	
1021	0	26768	33864	
1022	0	28554	34646	
1023	0	29713	34532	
1024	0	28660	32852	
1025	0	29368	32221	
1026	0	30461	31978	
1027	0	32828	31370	
1028	0	36320	31400	
1029	0	38672	32940	
1030	0	41088	35068	
1031	0	41528	34920	
1032	0	37076	33408	
1033	0	37912	33744	
1034	0	37186	33764	
1035	0	43096	32876	
1036	0	45316	32123	
1037	0	37840	32632	
1038	0	28346	33138	
1039	0	18716	31972	
1040	0	14480	31502	
1041	0	14128	32498	
1042	0	13964	32912	
1043	0	16560	32288	
1044	0	23685	30486	
1045	0	27194	29117	
1046	0	33316	31212	
1047	0	37721	33817	
1048	0	37888	34274	
1049	0	38236	33769	
1050	0	38652	34017	
1051	0	39093	34264	
1052	0	40076	34796	
1053	0	39624	34618	
1054	0	36290	33072	
1055	0	32331	33136	
1056	0	37960	32964	
1057	0	45122	32176	
1058	0	42682	32859	
1059	0	36508	32246	
1060	0	32932	31312	
1061	0	32336	31928	
1062	0	29480	33013	
1063	0	33162	33568	
1064	0	33244	32376	
1065	0	26828	32538	
1066	0	21218	32322	
1067	0	22968	32022	
1068	0	25356	32502	
1069	0	26442	31074	
1070	0	26804	31638	
1071	0	37108	32876	
1072	0	43184	33668	
1073	0	40378	33736	
1074	0	35531	32069	
1075	0	32395	32267	
1076	0	31136	31645	
1077	0	28724	32438	
1078	0	26264	33178	
1079	0	22472	32836	
1080	0	23058	32922	
1081	0	28686	32360	
1082	0	32208	31070	
1083	0	48784	31688	
1084	0	53616	30839	
1085	0	46064	31304	
1086	0	36040	33760	
1087	0	27739	36507	
1088	0	23524	33554	
1089	0	21228	32249	
1090	0	20192	31546	
1091	0	21102	32722	
1092	0	27482	33864	
1093	0	33670	35256	
1094	0	34296	34571	
1095	0	38564	33180	
1096	0	40568	32188	
1097	0	41632	32228	
1098	0	48848	33030	
1099	0	47104	31348	
1100	0	40776	30138	
1101	0	36812	31896	
1102	0	32172	33100	
1103	0	29304	33420	
1104	0	30258	33270	
1105	0	27832	32888	
1106	0	27364	33744	
1107	0	33128	33934	
1108	0	27538	33853	
1109	0	22849	32634	
1110	0	20536	32024	
1111	0	21198	32828	
1112	0	24426	32220	
1113	0	40762	31136	
1114	0	46276	31522	
1115	0	45050	31436	
1116	0	40588	32415	
1117	0	36344	33808	
1118	0	39744	33901	
1119	0	46656	32072	
1120	0	50434	31512	
1121	0	46268	31781	
1122	0	34696	32012	
1123	0	24002	32992	
1124	0	17530	33592	
1125	0	20301	33797	
1126	0	17880	34484	
1127	0	11232	34730	
1128	0	6419	35097	
1129	0	8241	34692	
1130	0	11348	33633	
1131	0	14102	32145	
1132	0	16480	32012	
1133	0	35234	31978	
1134	0	43504	31548	
1135	0	49496	30872	
1136	0	59652	30532	
1137	0	59272	31718	
1138	0	52608	31767	
1139	0	44224	32290	
1140	0	36700	32736	
1141	0	31252	32427	
1142	0	29900	32460	
1143	0	25016	32610	
1144	0	23905	32768	
1145	0	25094	32831	
1146	0	28952	32946	
1147	0	38860	32060	
1148	0	43052	31444	
1149	0	39752	33490	
1150	0	37136	35768	
1151	0	37940	35244	
1152	0	37136	33739	
1153	0	35769	32941	
1154	0	37656	32738	
1155	0	39416	32837	
1156	0	36920	32562	
1157	0	30283	31732	
1158	0	32505	31172	
1159	0	36026	30968	
1160	0	40436	30832	
1161	0	44016	31984	
1162	0	42568	32068	
1163	0	32112	32056	
1164	0	21828	33464	
1165	0	15004	34832	
1166	0	16747	36134	
1167	0	20092	33212	
1168	0	25064	30878	
1169	0	30570	32124	
1170	0	29168	33794	
1171	0	23625	34776	
1172	0	18424	33868	
1173	0	19880	32327	
1174	0	24200	32404	
1175	0	26472	31762	
1176	0	27724	33112	
1177	0	29170	32758	
1178	0	33084	32824	
1179	0	34810	32505	
1180	0	33298	32699	
1181	0	33356	32544	
1182	0	34152	31073	
1183	0	37224	31334	
1184	0	41544	32092	
1185	0	44872	32456	
1186	0	46768	33078	
1187	0	47140	33708	
1188	0	44744	33360	
1189	0	44800	33010	
1190	0	50544	33199	
1191	0	45340	32820	
1192	0	36668	32086	
1193	0	29920	31702	
1194	0	25408	32460	
1195	0	23914	32792	
1196	0	26512	32480	
1197	0	31305	32324	
1198	0	30260	31168	
1199	0	32401	31644	
1200	0	36606	32356	
1201	0	49608	31700	
1202	0	52402	31257	
1203	0	52208	31828	
1204	0	42364	34812	
1205	0	21068	36024	
1206	0	3205	34936	
1207	0	0	34434	
1208	0	2012	35180	
1209	0	6254	33921	
1210	0	9799	33301	
1211	0	26904	32490	
1212	0	35648	32472	
1213	0	38227	32445	
1214	0	39180	30768	
1215	0	37405	31513	
1216	0	36305	31698	
1217	0	37232	32598	
1218	0	36284	31907	
1219	0	36844	31430	
1220	0	40672	31392	
1221	0	44948	31714	
1222	0	46808	33024	
1223	0	45552	32787	
1224	0	40814	32860	
1225	0	38148	32903	
1226	0	36342	32254	
1227	0	34108	31385	
1228	0	29084	32008	
1229	0	22834	34785	
1230	0	20756	36195	
1231	0	22224	36112	
1232	0	21314	34976	
1233	0	23294	33580	
1234	0	26740	33243	
1235	0	35324	31597	
1236	0	50980	31072	
1237	0	59156	31288	
1238	0	58424	31650	
1239	0	54680	31664	
1240	0	42348	31912	
1241	0	31224	32928	
1242	0	23120	33346	
1243	0	17004	32108	
1244	0	14764	32512	
1245	0	13405	32672	
1246	0	15461	33002	
1247	0	23090	32084	
1248	0	35168	32732	
1249	0	50216	32484	
1250	0	52912	32920	
1251	0	44432	33944	
1252	0	32161	33300	
1253	0	25530	32453	
1254	0	24488	32431	
1255	0	23337	32188	
1256	0	22260	31483	
1257	0	20820	33148	
1258	0	22474	33460	
1259	0	23746	32072	
1260	0	22636	31566	
1261	0	26512	31986	
1262	0	32800	32717	
1263	0	39137	32785	
1264	0	46712	32096	
1265	0	51664	33244	
1266	0	56508	32793	
1267	0	58560	32966	
1268	0	52612	32892	
1269	0	37272	33408	
1270	0	22449	33856	
1271	0	11139	34160	
1272	0	3986	32801	
1273	0	4407	33373	
1274	0	8032	31948	
1275	0	26728	31876	
1276	0	38944	32948	
1277	0	47184	33352	
1278	0	56680	33208	
1279	0	56706	32804	
1280	0	50000	32394	
1281	0	40208	32992	
1282	0	31834	32885	
1283	0	24832	32176	
1284	0	21624	32168	
1285	0	30072	32830	
1286	0	30733	32139	
1287	0	25170	31903	
1288	0	23024	32415	
1289	0	26042	31940	
1290	0	26874	32116	
1291	0	26700	32430	
1292	0	36160	33158	
1293	0	42360	33572	
1294	0	41664	33690	
1295	0	41060	33028	
1296	0	38544	32098	
1297	0	40572	32996	
1298	0	40769	33488	
1299	0	36956	31820	
1300	0	27372	31716	
1301	0	17598	33560	
1302	0	11536	34512	
1303	0	11579	33312	
1304	0	16553	32225	
1305	0	20530	31490	
1306	0	25472	31640	
1307	0	31328	32158	
1308	0	34884	33106	
1309	0	35547	33363	
1310	0	41636	33368	
1311	0	46640	32100	
1312	0	42826	31974	
1313	0	38124	32603	
1314	0	40354	32413	
1315	0	44650	31200	
1316	0	48876	31656	
1317	0	49720	31989	
1318	0	46768	31853	
1319	0	41456	32051	
1320	0	36352	31963	
1321	0	29368	34426	
1322	0	22076	34956	
1323	0	21826	33166	
1324	0	21868	33215	
1325	0	25220	32789	
1326	0	29144	32900	
1327	0	34672	31932	
1328	0	41509	32688	
1329	0	40896	34210	
1330	0	38674	35110	
1331	0	50000	35348	
1332	0	48168	33276	
1333	0	36688	31890	
1334	0	21080	31292	
1335	0	13133	31308	
1336	0	14878	31598	
1337	0	22312	32425	
1338	0	24648	34786	
1339	0	26856	36201	
1340	0	29849	35400	
1341	0	27460	32838	
1342	0	27736	32839	
1343	0	27932	29274	
1344	0	31100	26914	
1345	0	39208	27578	
1346	0	43021	29842	
1347	0	37597	30126	
1348	0	33584	30376	
1349	0	37060	32520	
1350	0	40148	33508	
1351	0	32608	33502	
1352	0	22346	34784	
1353	0	15412	36664	
1354	0	13908	38004	
1355	0	19258	37383	
1356	0	27444	35632	
1357	0	37280	34720	
1358	0	48436	33060	
1359	0	50528	31437	
1360	0	50725	31040	
1361	0	47336	31163	
1362	0	37400	31930	
1363	0	27636	31664	
1364	0	27192	31860	
1365	0	34268	33930	
1366	0	32774	32967	
1367	0	34196	33635	
1368	0	32196	34728	
1369	0	29752	33052	
1370	0	24480	30976	
1371	0	19986	30525	
1372	0	13552	30752	
1373	0	12324	31931	
1374	0	17516	32142	
1375	0	25296	32120	
1376	0	35512	32460	
1377	0	42458	32784	
1378	0	44248	32477	
1379	0	44768	33128	
1380	0	45454	32695	
1381	0	44148	31933	
1382	0	41860	31020	
1383	0	46556	32188	
1384	0	47618	32238	
1385	0	45664	30810	
1386	0	48992	30734	
1387	0	49768	31366	
1388	0	47369	32612	
1389	0	39928	33755	
1390	0	30025	34128	
1391	0	21126	36552	
1392	0	14838	36058	
1393	0	15086	34694	
1394	0	17808	31971	
1395	0	20772	32014	
1396	0	23004	31106	
1397	0	20544	31980	
1398	0	26004	33449	
1399	0	38536	33156	
1400	0	41376	32067	
1401	0	32353	33496	
1402	0	27112	34832	
1403	0	26236	35053	
1404	0	30192	34304	
1405	0	33096	33157	
1406	0	26530	32202	
1407	0	18121	32432	
1408	0	16480	31736	
1409	0	22690	31433	
1410	0	36184	31156	
1411	0	48696	30076	
1412	0	52054	29792	
1413	0	56028	31075	
1414	0	58399	32828	
1415	0	56396	33209	
1416	0	53728	33736	
1417	0	45256	33062	
1418	0	41160	33618	
1419	0	36752	34020	
1420	0	24972	33280	
1421	0	12702	31962	
1422	0	4416	29634	
1423	0	972	28524	
1424	0	3614	29678	
1425	0	7490	33532	
1426	0	10822	31940	
1427	0	28465	31176	
1428	0	36524	31341	
1429	0	37664	33376	
1430	0	46136	37124	
1431	0	56326	36848	
1432	0	60368	37352	
1433	0	60580	37288	
1434	0	57316	35738	
1435	0	54166	32762	
1436	0	51428	31654	
1437	0	27412	32842	
1438	0	16744	33396	
1439	0	7164	30946	
1440	0	2632	27658	
1441	0	3042	27064	
1442	0	6868	29246	
1443	0	10289	33672	
1444	0	23020	38624	
1445	0	35474	40160	
1446	0	36252	37472	
1447	0	35892	32884	
1448	0	32968	27240	
1449	0	32982	26180	
1450	0	37672	28704	
1451	0	40008	31528	
1452	0	45352	34924	
1453	0	51764	35876	
1454	0	54572	34036	
1455	0	57100	32024	
1456	0	56100	32929	
1457	0	53460	31684	
1458	0	49740	30340	
1459	0	49714	29697	
1460	0	30954	30594	
1461	0	11654	31458	
1462	0	2866	31800	
1463	0	4	34452	
1464	0	2547	36936	
1465	0	6594	37514	
1466	0	10067	36594	
1467	0	32364	35162	
1468	0	38388	32879	
1469	0	35912	32211	
1470	0	39616	31180	
1471	0	48320	29336	
1472	0	48468	29125	
1473	0	44256	29594	
1474	0	44444	32076	
1475	0	41176	34957	
1476	0	35052	35220	
1477	0	28313	33372	
1478	0	26258	31398	
1479	0	22290	30050	
1480	0	23024	30606	
1481	0	24112	30744	
1482	0	24341	32100	
1483	0	32604	34304	
1484	0	42930	37144	
1485	0	52280	36576	
1486	0	57026	35106	
1487	0	57564	32710	
1488	0	45608	28812	
1489	0	26860	29420	
1490	0	16528	29532	
1491	0	14836	29012	
1492	0	18021	31146	
1493	0	12800	34120	
1494	0	10528	38076	
1495	0	20760	38248	
1496	0	32226	34800	
1497	0	45436	31424	
1498	0	53236	30548	
1499	0	61352	32248	
1500	0	59040	33488	
1501	0	55744	34088	
1502	0	52780	33183	
1503	0	35436	30884	
1504	0	18480	30536	
1505	0	7836	31388	
1506	0	1409	35184	
1507	0	2404	38272	
1508	0	6409	35652	
1509	0	9913	32488	
1510	0	12900	30798	
1511	0	15452	32368	
1512	0	30986	33054	
1513	0	39312	34660	
1514	0	39274	35045	
1515	0	36824	29855	
1516	0	37384	25847	
1517	0	37657	26631	
1518	0	36978	30804	
1519	0	41448	34162	
1520	0	45920	35068	
1521	0	46308	34221	
1522	0	47980	29066	
1523	0	49100	29240	
1524	0	53476	35376	
1525	0	57620	36802	
1526	0	53512	35758	
1527	0	42404	36216	
1528	0	30984	37150	
1529	0	24376	34226	
1530	0	20885	31421	
1531	0	34204	30700	
1532	0	41386	31696	
1533	0	38870	33011	
1534	0	43516	32632	
1535	0	46816	31132	
1536	0	36908	29026	
1537	0	24941	27946	
1538	0	16208	29130	
1539	0	17024	31552	
1540	0	14168	30224	
1541	0	7313	30510	
1542	0	4820	32896	
1543	0	8537	35970	
1544	0	19706	34252	
1545	0	26168	32517	
1546	0	28012	31815	
1547	0	32570	34540	
1548	0	37232	36024	
1549	0	58192	35896	
1550	0	64552	34328	
1551	0	54542	31128	
1552	0	38624	29058	
1553	0	28353	29772	
1554	0	25162	33860	
1555	0	27688	37400	
1556	0	21237	38280	
1557	0	14748	36352	
1558	0	14616	34330	
1559	0	17724	32690	
1560	0	25728	33317	
1561	0	36472	32852	
1562	0	46416	29868	
1563	0	48552	27194	
1564	0	46004	24950	
1565	0	41524	27510	
1566	0	39370	33386	
1567	0	39208	40916	
1568	0	46464	42224	
1569	0	52204	37586	
1570	0	51640	32694	
1571	0	41084	30156	
1572	0	27476	30256	
1573	0	21284	30852	
1574	0	21716	31270	
1575	0	25764	29005	
1576	0	27552	26614	
1577	0	25776	28841	
1578	0	24794	33597	
1579	0	23097	36465	
1580	0	20978	34888	
1581	0	19618	33868	
1582	0	22480	33198	
1583	0	25430	32564	
1584	0	20864	34696	
1585	0	19106	36532	
1586	0	21400	37522	
1587	0	28932	36845	
1588	0	37736	34536	
1589	0	46904	31360	
1590	0	52302	28640	
1591	0	54464	27920	
1592	0	51588	30296	
1593	0	44960	31134	
1594	0	41858	31789	
1595	0	53920	30428	
1596	0	54912	28269	
1597	0	52474	28676	
1598	0	40308	30300	
1599	0	28677	34592	
1600	0	20735	38728	
1601	0	15072	39302	
1602	0	10836	35084	
1603	0	7699	33708	
1604	0	7306	33504	
1605	0	14294	29920	
1606	0	27536	29028	
1607	0	43792	31485	
1608	0	48248	32014	
1609	0	46174	34948	
1610	0	44248	35072	
1611	0	34744	32616	
1612	0	24496	29536	
1613	0	15406	30618	
1614	0	11012	33188	
1615	0	14168	35054	
1616	0	18176	36716	
1617	0	20177	35170	
1618	0	31220	33104	
1619	0	39596	29496	
1620	0	54060	31268	
1621	0	59448	37834	
1622	0	56684	37906	
1623	0	50024	30668	
1624	0	46648	28414	
1625	0	41496	30504	
1626	0	34880	32760	
1627	0	29664	35026	
1628	0	28258	33130	
1629	0	28619	30882	
1630	0	28377	34006	
1631	0	25696	34662	
1632	0	24046	34050	
1633	0	28832	34939	
1634	0	32594	31648	
1635	0	34822	30016	
1636	0	38724	29936	
1637	0	40184	32456	
1638	0	40498	33008	
1639	0	41096	30574	
1640	0	32986	32130	
1641	0	26288	34876	
1642	0	31064	37546	
1643	0	28164	35987	
1644	0	26256	34194	
1645	0	22736	32376	
1646	0	18100	30188	
1647	0	21794	28093	
1648	0	22270	27296	
1649	0	21080	28721	
1650	0	19212	29238	
1651	0	24242	30572	
1652	0	36202	33454	
1653	0	43018	34729	
1654	0	49128	37204	
1655	0	59328	37364	
1656	0	60752	34384	
1657	0	57522	32548	
1658	0	38984	33237	
1659	0	26090	34408	
1660	0	17428	34898	
1661	0	14560	34479	
1662	0	13866	35910	
1663	0	16539	36889	
1664	0	24300	36122	
1665	0	28580	33516	
1666	0	29753	31853	
1667	0	30796	30595	
1668	0	32484	29792	
1669	0	37306	30404	
1670	0	39248	33841	
1671	0	40056	35207	
1672	0	37518	34534	
1673	0	37094	31364	
1674	0	38448	28132	
1675	0	35266	28728	
1676	0	35360	32058	
1677	0	35479	35066	
1678	0	34113	31954	
1679	0	36402	30292	
1680	0	38032	29914	
1681	0	38172	30555	
1682	0	35696	36252	
1683	0	34000	40944	
1684	0	36208	41440	
1685	0	42688	44592	
1686	0	39768	32072	
1687	0	36380	20351	
1688	0	34220	21302	
1689	0	41744	27168	
1690	0	50256	37409	
1691	0	43132	40464	
1692	0	32001	31052	
1693	0	21086	23952	
1694	0	13882	26096	
1695	0	12747	28509	
1696	0	13580	28679	
1697	0	11262	30808	
1698	0	12844	32263	
1699	0	15208	34148	
1700	0	17692	36694	
1701	0	21250	35536	
1702	0	28832	33558	
1703	0	33200	31751	
1704	0	40176	30700	
1705	0	46357	30298	
1706	0	43920	33287	
1707	0	45252	38962	
1708	0	49760	42141	
1709	0	47224	36306	
1710	0	40808	28452	
1711	0	39508	28325	
1712	0	34280	34252	
1713	0	23752	37688	
1714	0	16296	34232	
1715	0	13410	29074	
1716	0	15563	29670	
1717	0	25202	31330	
1718	0	35872	31252	
1719	0	46928	30104	
1720	0	56944	31828	
1721	0	61176	35804	
1722	0	58224	38106	
1723	0	54976	34064	
1724	0	52136	28938	
1725	0	45988	27420	
1726	0	20760	31962	
1727	0	7100	33000	
1728	0	6736	33286	
1729	0	11092	35752	
1730	0	14886	37882	
1731	0	16809	35792	
1732	0	9020	32891	
1733	0	10594	31434	
1734	0	13352	34978	
1735	0	15835	36776	
1736	0	31392	32775	
1737	0	39252	26640	
1738	0	43944	25818	
1739	0	52240	30914	
1740	0	56752	32432	
1741	0	54442	28744	
1742	0	51120	30981	
1743	0	45284	36356	
1744	0	40633	41096	
1745	0	37981	38528	
1746	0	35856	30171	
1747	0	32136	32794	
1748	0	30886	36313	
1749	0	25150	38248	
1750	0	22800	35480	
1751	0	19618	28828	
1752	0	16808	25454	
1753	0	21732	23982	
1754	0	28640	27712	
1755	0	30608	30240	
1756	0	29660	34972	
1757	0	39482	36728	
1758	0	53672	35161	
1759	0	56548	31478	
1760	0	48560	25082	
1761	0	45328	21209	
1762	0	41120	25860	
1763	0	38388	33872	
1764	0	33024	41092	
1765	0	25976	36079	
1766	0	20336	31916	
1767	0	17826	28451	
1768	0	16836	32220	
1769	0	21520	35142	
1770	0	30816	36722	
1771	0	38101	41466	
1772	0	41468	46610	
1773	0	37500	37370	
1774	0	30928	27692	
1775	0	27960	28128	
1776	0	25142	32418	
1777	0	22024	38068	
1778	0	21081	34184	
1779	0	25714	28201	
1780	0	33922	27960	
1781	0	40828	31626	
1782	0	40240	35770	
1783	0	40044	35069	
1784	0	44252	31576	
1785	0	43608	26720	
1786	0	43472	25853	
1787	0	44300	28642	
1788	0	42882	34273	
1789	0	39773	37908	
1790	0	30856	42280	
1791	0	18914	41272	
1792	0	22192	33221	
1793	0	27720	31454	
1794	0	30344	29536	
1795	0	24220	24092	
1796	0	24112	22296	
1797	0	26944	27118	
1798	0	31904	32968	
1799	0	39474	34816	
1800	0	42914	32777	
1801	0	37726	33093	
1802	0	33984	35273	
1803	0	32776	37577	
1804	0	28072	39476	
1805	0	23527	38072	
1806	0	17424	34989	
1807	0	13842	31888	
1808	0	13586	31100	
1809	0	21544	31702	
1810	0	30370	30349	
1811	0	33872	31847	
1812	0	38384	33656	
1813	0	43644	35088	
1814	0	48824	22736	
1815	0	53042	24193	
1816	0	54257	33972	
1817	0	51016	47960	
1818	0	44354	46644	
1819	0	34168	29888	
1820	0	27480	21096	
1821	0	19554	26921	
1822	0	19412	30586	
1823	0	23172	24312	
1824	0	28583	25744	
1825	0	33348	28354	
1826	0	31216	32404	
1827	0	23760	36474	
1828	0	18498	39202	
1829	0	19556	38767	
1830	0	28708	34282	
1831	0	36620	33892	
1832	0	49088	36552	
1833	0	57064	36816	
1834	0	58458	36242	
1835	0	51540	37304	
1836	0	41664	35602	
1837	0	33924	33058	
1838	0	24728	32034	
1839	0	23040	30774	
1840	0	25697	25658	
1841	0	32594	26444	
1842	0	36440	30546	
1843	0	40876	35092	
1844	0	43876	37023	
1845	0	36976	33084	
1846	0	26608	30968	
1847	0	14040	33160	
1848	0	10980	33522	
1849	0	8903	31448	
1850	0	7203	28572	
1851	0	14605	28700	
1852	0	25257	30968	
1853	0	35754	32464	
1854	0	41092	35044	
1855	0	45522	31321	
1856	0	52720	24800	
1857	0	54074	25908	
1858	0	46174	34960	
1859	0	37409	44068	
1860	0	31584	39908	
1861	0	26056	34920	
1862	0	19670	34012	
1863	0	15510	35040	
1864	0	18704	33682	
1865	0	24234	32409	
1866	0	33376	31822	
1867	0	46148	30427	
1868	0	51656	30764	
1869	0	48933	31844	
1870	0	40403	34056	
1871	0	33512	35610	
1872	0	26552	35629	
1873	0	24886	33528	
1874	0	19588	26376	
1875	0	21032	21360	
1876	0	30528	26696	
1877	0	33417	35792	
1878	0	34850	44228	
1879	0	38340	40292	
1880	0	43864	34324	
1881	0	49424	39528	
1882	0	49280	40028	
1883	0	42208	32792	
1884	0	30400	20538	
1885	0	24885	20227	
1886	0	25188	26363	
1887	0	25692	34388	
1888	0	34084	35824	
1889	0	42112	33152	
1890	0	47352	33858	
1891	0	46224	34385	
1892	0	38266	36320	
1893	0	25602	33208	
1894	0	19189	29136	
1895	0	17936	28516	
1896	0	16100	28880	
1897	0	14436	32137	
1898	0	15401	33924	
1899	0	19818	34740	
1900	0	29520	34586	
1901	0	43484	34410	
1902	0	55256	33497	
1903	0	56712	31320	
1904	0	52012	29732	
1905	0	51176	30752	
1906	0	49730	33596	
1907	0	37216	36952	
1908	0	22546	36854	
1909	0	12595	35432	
1910	0	11024	33892	
1911	0	8262	30900	
1912	0	8820	33948	
1913	0	13261	40266	
1914	0	19358	39296	
1915	0	30772	29080	
1916	0	42562	22236	
1917	0	45384	25476	
1918	0	45066	32105	
1919	0	41029	37770	
1920	0	36474	37472	
1921	0	34905	31810	
1922	0	31858	28198	
1923	0	31873	30296	
1924	0	34084	31772	
1925	0	38169	27544	
1926	0	42244	23216	
1927	0	39256	30752	
1928	0	32864	38672	
1929	0	29682	41500	
1930	0	28509	38819	
1931	0	31144	36352	
1932	0	30236	35335	
1933	0	30915	32500	
1934	0	37120	30832	
1935	0	44224	27880	
1936	0	46962	26740	
1937	0	42376	33883	
1938	0	39328	36943	
1939	0	39592	33398	
1940	0	36952	29764	
1941	0	32536	28928	
1942	0	30760	31938	
1943	0	35798	33725	
1944	0	36101	33093	
1945	0	36480	34823	
1946	0	37768	32817	
1947	0	28106	32037	
1948	0	22477	32084	
1949	0	25248	31903	
1950	0	19476	32210	
1951	0	13500	34808	
1952	0	12712	38704	
1953	0	9635	35720	
1954	0	15480	27842	
1955	0	23817	28638	
1956	0	31256	35008	
1957	0	36036	37708	
1958	0	35648	33150	
1959	0	34856	32556	
1960	0	38756	32292	
1961	0	46656	32116	
1962	0	50744	28937	
1963	0	48368	27848	
1964	0	43012	32153	
1965	0	32618	38660	
1966	0	21593	42196	
1967	0	18777	37908	
1968	0	24838	29178	
1969	0	34306	29328	
1970	0	40300	32186	
1971	0	43322	32748	
1972	0	43176	29930	
1973	0	40964	30885	
1974	0	34944	31333	
1975	0	30952	33451	
1976	0	37332	34730	
1977	0	42040	34123	
1978	0	38056	31630	
1979	0	30992	27920	
1980	0	25036	27596	
1981	0	23548	31200	
1982	0	24253	34654	
1983	0	27888	34399	
1984	0	32432	33152	
1985	0	37518	31764	
1986	0	37100	33174	
1987	0	34848	34819	
1988	0	29477	35280	
1989	0	22804	32558	
1990	0	23617	30176	
1991	0	32113	30428	
1992	0	39576	33930	
1993	0	42386	34904	
1994	0	42372	33744	
1995	0	39368	32626	
1996	0	34841	33408	
1997	0	26770	33066	
1998	0	24805	33188	
1999	0	28012	33278	
2000	0	31136	32240	
2001	0	32076	31975	
2002	0	30564	31983	
2003	0	29240	31176	
2004	0	31924	28580	
2005	0	35360	31866	
2006	0	34744	38024	
2007	0	35264	40957	
2008	0	38232	34671	
2009	0	39032	30116	
2010	0	41017	33336	
2011	0	45752	35280	
2012	0	49660	32952	
2013	0	44897	30040	
2014	0	33408	27500	
2015	0	18444	27345	
2016	0	4224	27818	
2017	0	1653	28208	
2018	0	10171	31006	
2019	0	22656	36412	
2020	0	31290	40880	
2021	0	38690	38344	
2022	0	42025	34763	
2023	0	39216	36152	
2024	0	35892	35801	
2025	0	34392	25538	
2026	0	32536	20622	
2027	0	26458	31424	
2028	0	29004	38087	
2029	0	36372	36393	
2030	0	40528	32610	
2031	0	39568	32316	
2032	0	35544	32391	
2033	0	34520	31185	
2034	0	35648	32505	
2035	0	30088	34136	
2036	0	29364	33420	
2037	0	33416	30200	
2038	0	35324	31409	
2039	0	34916	33200	
2040	0	34454	33786	
2041	0	36922	32932	
2042	0	37053	33022	
2043	0	37436	32460	
2044	0	37650	32824	
2045	0	34660	32682	
2046	0	32656	31979	
2047	0	31236	31490	
2048	0	32496	32506	
2049	0	32110	32386	
2050	0	34785	26876	
2051	0	34128	27683	
2052	0	29184	33235	
2053	0	25400	38420	
2054	0	23418	39480	
2055	0	22381	37776	
2056	0	27744	36654	
2057	0	32685	34352	
2058	0	38036	32736	
2059	0	40864	32396	
2060	0	43240	30957	
2061	0	43898	29080	
2062	0	41560	29528	
2063	0	37850	31520	
2064	0	28752	34292	
2065	0	21670	34626	
2066	0	21988	35162	
2067	0	26258	33331	
2068	0	30200	32085	
2069	0	30000	31049	
2070	0	28034	29720	
2071	0	31298	30300	
2072	0	38108	31698	
2073	0	42196	32876	
2074	0	41568	33477	
2075	0	36134	34704	
2076	0	33844	34823	
2077	0	35128	34274	
2078	0	34397	33312	
2079	0	33482	31577	
2080	0	31876	30372	
2081	0	26023	31712	
2082	0	20020	34456	
2083	0	15196	34776	
2084	0	18997	32156	
2085	0	26378	31746	
2086	0	32562	32467	
2087	0	35226	33600	
2088	0	34010	34003	
2089	0	33477	33069	
2090	0	32509	31802	
2091	0	32390	32192	
2092	0	35264	33746	
2093	0	37386	33930	
2094	0	38000	33372	
2095	0	39666	33504	
2096	0	40280	33748	
2097	0	37972	31783	
2098	0	35168	33124	
2099	0	34608	32646	
2100	0	35877	31455	
2101	0	38032	32056	
2102	0	40384	33160	
2103	0	41252	31828	
2104	0	38522	29956	
2105	0	33980	29806	
2106	0	31330	29328	
2107	0	29104	31862	
2108	0	22914	33072	
2109	0	19726	33038	
2110	0	18092	33572	
2111	0	23947	34040	
2112	0	31922	34730	
2113	0	38552	35028	
2114	0	42976	30744	
2115	0	44368	31322	
2116	0	46508	31628	
2117	0	46309	33834	
2118	0	39226	32026	
2119	0	31456	30512	
2120	0	24372	28644	
2121	0	21468	31698	
2122	0	23564	36219	
2123	0	23001	37272	
2124	0	21906	36792	
2125	0	23152	33274	
2126	0	25168	30976	
2127	0	24488	29593	
2128	0	28796	31356	
2129	0	32502	33820	
2130	0	37968	34972	
2131	0	39616	35693	
2132	0	34880	35184	
2133	0	33770	34222	
2134	0	36590	33336	
2135	0	34685	33763	
2136	0	33792	32436	
2137	0	40856	30704	
2138	0	45756	30442	
2139	0	44048	31037	
2140	0	36320	33964	
2141	0	31734	35335	
2142	0	30308	33930	
2143	0	22405	32233	
2144	0	16298	32816	
2145	0	22742	32576	
2146	0	31732	32116	
2147	0	37320	31592	
2148	0	41168	32036	
2149	0	44832	32890	
2150	0	44832	32346	
2151	0	38650	31898	
2152	0	28792	31521	
2153	0	22016	31460	
2154	0	21025	31793	
2155	0	26294	31938	
2156	0	29370	31494	
2157	0	28194	31040	
2158	0	31456	31659	
2159	0	38480	32768	
2160	0	40328	31477	
2161	0	32952	31996	
2162	0	28028	34435	
2163	0	26136	36088	
2164	0	24772	34938	
2165	0	23929	32820	
2166	0	28042	32436	
2167	0	35752	32404	
2168	0	40594	34088	
2169	0	42784	33706	
2170	0	43816	32374	
2171	0	44580	33945	
2172	0	48099	34258	
2173	0	51544	34900	
2174	0	50152	34144	
2175	0	44424	34096	
2176	0	39040	31945	
2177	0	31200	30416	
2178	0	24666	28568	
2179	0	13968	28124	
2180	0	8821	28718	
2181	0	17338	29602	
2182	0	25042	33820	
2183	0	27860	36072	
2184	0	26608	34592	
2185	0	22928	34136	
2186	0	17380	33348	
2187	0	14382	34144	
2188	0	22412	35064	
2189	0	33973	35232	
2190	0	41396	35280	
2191	0	44224	34480	
2192	0	48292	33312	
2193	0	49282	32162	
2194	0	44918	30957	
2195	0	41812	30825	
2196	0	37120	29664	
2197	0	35492	29940	
2198	0	32797	30271	
2199	0	25842	31936	
2200	0	17688	31936	
2201	0	20692	32844	
2202	0	23722	32605	
2203	0	21196	32738	
2204	0	27904	33394	
2205	0	38020	33681	
2206	0	41984	34452	
2207	0	41408	33908	
2208	0	42029	33456	
2209	0	41138	33925	
2210	0	38568	33050	
2211	0	35620	31545	
2212	0	31280	31884	
2213	0	31901	32212	
2214	0	34044	32961	
2215	0	32624	34082	
2216	0	34600	33056	
2217	0	39044	31256	
2218	0	42880	30707	
2219	0	48664	32052	
2220	0	53864	33452	
2221	0	52128	33902	
2222	0	49794	34722	
2223	0	40824	34932	
2224	0	3493	31788	
2225	0	0	31492	
2226	0	0	31790	
2227	0	3287	33352	
2228	0	7338	31549	
2229	0	17798	30306	
2230	0	28310	30608	
2231	0	36442	32698	
2232	0	45924	32890	
2233	0	55044	32594	
2234	0	56140	32696	
2235	0	52468	34166	
2236	0	45504	34303	
2237	0	35220	33501	
2238	0	21241	32441	
2239	0	11009	32848	
2240	0	6448	35154	
2241	0	17968	34762	
2242	0	29816	32837	
2243	0	37504	31024	
2244	0	42792	31368	
2245	0	47160	31538	
2246	0	50428	31154	
2247	0	51058	31542	
2248	0	49252	29307	
2249	0	43184	28178	
2250	0	34744	29202	
2251	0	24214	31812	
2252	0	16756	33644	
2253	0	18388	35429	
2254	0	22868	37688	
2255	0	23810	37551	
2256	0	22268	36384	
2257	0	24225	36432	
2258	0	33434	32164	
2259	0	41170	29488	
2260	0	44662	29369	
2261	0	45402	30628	
2262	0	44244	32748	
2263	0	40352	34951	
2264	0	36750	35222	
2265	0	32876	36116	
2266	0	26992	32960	
2267	0	26377	31475	
2268	0	29308	29636	
2269	0	30968	30185	
2270	0	30446	32097	
2271	0	29442	32474	
2272	0	25108	33444	
2273	0	29520	34109	
2274	0	40032	34784	
2275	0	44196	33392	
2276	0	43948	31654	
2277	0	45746	30651	
2278	0	44892	30738	
2279	0	38152	30852	
2280	0	31928	31971	
2281	0	31462	32420	
2282	0	28826	33928	
2283	0	19874	34278	
2284	0	9684	33148	
2285	0	3460	31568	
2286	0	6729	31420	
2287	0	10142	32568	
2288	0	18962	32260	
2289	0	43016	32556	
2290	0	51496	32296	
2291	0	55562	33152	
2292	0	54944	35002	
2293	0	50693	32622	
2294	0	44298	32710	
2295	0	33356	32588	
2296	0	21972	32260	
2297	0	18220	32420	
2298	0	18322	30325	
2299	0	23818	32108	
2300	0	30948	33930	
2301	0	38688	34388	
2302	0	47589	34718	
2303	0	51866	34408	
2304	0	46932	33024	
2305	0	38020	32038	
2306	0	28282	34692	
2307	0	18872	37656	
2308	0	12960	35552	
2309	0	9616	29128	
2310	0	14411	24648	
2311	0	24156	30050	
2312	0	29982	33682	
2313	0	38352	34504	
2314	0	44184	33061	
2315	0	47756	31100	
2316	0	48360	29716	
2317	0	45832	32956	
2318	0	42060	36938	
2319	0	39424	36070	
2320	0	33330	26024	
2321	0	26796	23696	
2322	0	26048	25024	
2323	0	30824	31389	
2324	0	35566	34278	
2325	0	35210	35970	
2326	0	33748	37200	
2327	0	34674	35728	
2328	0	34168	34258	
2329	0	33344	35847	
2330	0	34232	38489	
2331	0	34842	35408	
2332	0	33648	33460	
2333	0	29190	32404	
2334	0	23248	33192	
2335	0	22164	33116	
2336	0	29054	31517	
2337	0	40552	31016	
2338	0	51570	29675	
2339	0	56668	28430	
2340	0	54712	28617	
2341	0	52032	33162	
2342	0	49608	35423	
2343	0	33535	34632	
2344	0	14506	33816	
2345	0	1141	33604	
2346	0	0	32009	
2347	0	1507	31216	
2348	0	5837	32522	
2349	0	9451	35602	
2350	0	12498	34432	
2351	0	24182	32043	
2352	0	31936	31484	
2353	0	38628	33272	
2354	0	40800	34644	
2355	0	45092	33212	
2356	0	47372	30898	
2357	0	46092	32307	
2358	0	44114	32640	
2359	0	42392	31644	
2360	0	41155	31929	
2361	0	41990	32564	
2362	0	40808	31675	
2363	0	34488	31281	
2364	0	30416	32826	
2365	0	25776	33606	
2366	0	21933	33833	
2367	0	24402	34136	
2368	0	29144	33641	
2369	0	35840	33424	
2370	0	38836	31856	
2371	0	34544	31590	
2372	0	33864	32578	
2373	0	35000	32864	
2374	0	34768	34333	
2375	0	33541	34352	
2376	0	31384	32813	
2377	0	30612	32056	
2378	0	28340	31572	
2379	0	28362	31430	
2380	0	30464	31490	
2381	0	33812	29728	
2382	0	38308	30213	
2383	0	43506	32532	
2384	0	48372	34476	
2385	0	49992	35680	
2386	0	48138	34604	
2387	0	45129	32432	
2388	0	40626	31985	
2389	0	32158	31972	
2390	0	24464	32612	
2391	0	23086	33688	
2392	0	22230	35160	
2393	0	18029	34020	
2394	0	15652	32436	
2395	0	15049	33088	
2396	0	17034	32908	
2397	0	23197	30816	
2398	0	28048	30840	
2399	0	28544	31691	
2400	0	27976	32839	
2401	0	34160	31756	
2402	0	45120	32298	
2403	0	51840	33220	
2404	0	52582	35490	
2405	0	47002	36359	
2406	0	41458	34558	
2407	0	37952	32196	
2408	0	31488	31502	
2409	0	27808	32014	
2410	0	23848	32481	
2411	0	21824	30650	
2412	0	22355	28430	
2413	0	21144	28548	
2414	0	22228	30586	
2415	0	24916	35346	
2416	0	30842	38752	
2417	0	35424	38484	
2418	0	35593	36163	
2419	0	35368	34664	
2420	0	35120	31923	
2421	0	36900	29688	
2422	0	38838	28878	
2423	0	39204	30895	
2424	0	34872	31955	
2425	0	32340	31999	
2426	0	30988	32311	
2427	0	27436	33582	
2428	0	30488	35442	
2429	0	35596	34688	
2430	0	38612	32978	
2431	0	41536	30320	
2432	0	44680	29940	
2433	0	44311	29351	
2434	0	39848	29054	
2435	0	41128	30816	
2436	0	44746	32511	
2437	0	46812	33333	
2438	0	43432	34951	
2439	0	37192	35169	
2440	0	26073	33968	
2441	0	16712	33936	
2442	0	11597	33696	
2443	0	6216	32220	
2444	0	3881	32260	
2445	0	6800	32664	
2446	0	12104	34500	
2447	0	23590	34072	
2448	0	34240	33128	
2449	0	40402	32480	
2450	0	44640	32537	
2451	0	46258	32470	
2452	0	44378	32725	
2453	0	39040	34021	
2454	0	35768	34275	
2455	0	33494	32750	
2456	0	32708	32448	
2457	0	37464	32748	
2458	0	45520	32464	
2459	0	47252	31747	
2460	0	45666	30522	
2461	0	40416	30092	
2462	0	31877	31600	
2463	0	19684	32944	
2464	0	14234	33960	
2465	0	16424	33721	
2466	0	20176	33027	
2467	0	21968	33190	
2468	0	23958	32923	
2469	0	28978	34201	
2470	0	33852	34311	
2471	0	38752	33710	
2472	0	43224	32372	
2473	0	46946	31712	
2474	0	47986	32136	
2475	0	46504	32328	
2476	0	44394	32187	
2477	0	45864	32252	
2478	0	46978	31974	
2479	0	44458	30766	
2480	0	41426	31736	
2481	0	34844	33356	
2482	0	27002	31508	
2483	0	20688	29918	
2484	0	15760	31976	
2485	0	12196	34304	
2486	0	12472	37064	
2487	0	16660	36325	
2488	0	26518	34112	
2489	0	38012	31944	
2490	0	44696	31600	
2491	0	47226	31280	
2492	0	43738	31634	
2493	0	37820	33114	
2494	0	30354	33968	
2495	0	25637	33204	
2496	0	24347	33287	
2497	0	22244	34107	
2498	0	19554	34593	
2499	0	21320	33927	
2500	0	26220	30112	
2501	0	30992	28104	
2502	0	35496	27756	
2503	0	39502	29434	
2504	0	42068	31292	
2505	0	38980	32715	
2506	0	34098	34190	
2507	0	30712	34746	
2508	0	28649	34589	
2509	0	29152	34882	
2510	0	33676	35080	
2511	0	36324	34275	
2512	0	36816	32654	
2513	0	43100	31776	
2514	0	54048	31940	
2515	0	57350	32066	
2516	0	54952	31878	
2517	0	52184	31800	
2518	0	49720	31751	
2519	0	25464	32544	
2520	0	11020	32328	
2521	0	0	32776	
2522	0	0	33150	
2523	0	3700	33780	
2524	0	7666	33923	
2525	0	10982	34154	
2526	0	25652	33362	
2527	0	42946	32936	
2528	0	48442	32492	
2529	0	49696	31928	
2530	0	47736	32992	
2531	0	45556	33406	
2532	0	43432	32986	
2533	0	42424	33270	
2534	0	42042	34023	
2535	0	41509	33344	
2536	0	39232	32736	
2537	0	39696	32208	
2538	0	43104	31546	
2539	0	42068	31168	
2540	0	34169	30760	
2541	0	22904	30585	
2542	0	13496	31154	
2543	0	12717	32848	
2544	0	16861	32926	
2545	0	19372	33736	
2546	0	19972	32910	
2547	0	29952	32194	
2548	0	39769	33392	
2549	0	45288	33332	
2550	0	44698	33274	
2551	0	41228	35132	
2552	0	35826	34610	
2553	0	29851	35859	
2554	0	27776	36376	
2555	0	24260	32645	
2556	0	23478	28964	
2557	0	27904	27185	
2558	0	30674	26946	
2559	0	36765	28104	
2560	0	38141	31627	
2561	0	37838	34059	
2562	0	36338	34646	
2563	0	32014	35220	
2564	0	26856	35052	
2565	0	23940	34589	
2566	0	26242	33647	
2567	0	28637	32429	
2568	0	28818	31964	
2569	0	31424	33010	
2570	0	35608	33554	
2571	0	38864	31622	
2572	0	39960	30796	
2573	0	43784	32166	
2574	0	45980	33512	
2575	0	47552	33440	
2576	0	47384	32692	
2577	0	47976	32116	
2578	0	48544	32584	
2579	0	46752	33252	
2580	0	43294	33124	
2581	0	37532	33066	
2582	0	30688	32626	
2583	0	21804	33072	
2584	0	11547	33384	
2585	0	3121	33456	
2586	0	878	32394	
2587	0	4161	32520	
2588	0	7980	31938	
2589	0	11230	32087	
2590	0	23969	32094	
2591	0	35812	32088	
2592	0	43840	32104	
2593	0	49544	30532	
2594	0	47744	29433	
2595	0	42572	30738	
2596	0	38308	34332	
2597	0	35152	36928	
2598	0	37383	36718	
2599	0	34416	34892	
2600	0	35140	34409	
2601	0	32218	33536	
2602	0	25906	32988	
2603	0	23364	32747	
2604	0	24782	32857	
2605	0	28572	32176	
2606	0	32170	31604	
2607	0	35408	31638	
2608	0	38832	31208	
2609	0	37900	31159	
2610	0	36800	31350	
2611	0	37636	31584	
2612	0	39456	31940	
2613	0	43816	32461	
2614	0	52152	33622	
2615	0	53816	34529	
2616	0	48516	32857	
2617	0	40892	32085	
2618	0	33952	32096	
2619	0	27675	32098	
2620	0	23229	32628	
2621	0	21160	32897	
2622	0	21408	33769	
2623	0	22684	34691	
2624	0	22144	33960	
2625	0	22006	32652	
2626	0	25056	31270	
2627	0	26336	30239	
2628	0	27320	30863	
2629	0	34221	32474	
2630	0	37836	33584	
2631	0	38788	33807	
2632	0	39652	33600	
2633	0	37442	32884	
2634	0	34280	32508	
2635	0	31414	32412	
2636	0	26984	33380	
2637	0	23428	32429	
2638	0	23182	31521	
2639	0	26244	31643	
2640	0	31752	31570	
2641	0	37108	32240	
2642	0	47760	33280	
2643	0	58520	33882	
2644	0	56966	35508	
2645	0	47860	33424	
2646	0	34802	31636	
2647	0	22265	32736	
2648	0	13294	34669	
2649	0	9292	34108	
2650	0	7850	32189	
2651	0	12184	33227	
2652	0	26592	32408	
2653	0	47132	31922	
2654	0	58824	31452	
2655	0	60976	32040	
2656	0	57892	31964	
2657	0	46424	31411	
2658	0	33428	31328	
2659	0	25404	32452	
2660	0	19312	33776	
2661	0	17172	34160	
2662	0	15256	33200	
2663	0	12376	32087	
2664	0	20784	31980	
2665	0	24800	34092	
2666	0	28160	35106	
2667	0	34632	33980	
2668	0	38914	33369	
2669	0	38912	32479	
2670	0	37664	31616	
2671	0	34064	31490	
2672	0	28128	32289	
2673	0	25426	32368	
2674	0	26384	31298	
2675	0	27264	31462	
2676	0	29884	33164	
2677	0	38688	34928	
2678	0	48178	33612	
2679	0	50800	31968	
2680	0	51416	31424	
2681	0	50864	31774	
2682	0	45980	32317	
2683	0	36840	32946	
2684	0	25452	33346	
2685	0	16028	33922	
2686	0	15480	33469	
2687	0	26036	32864	
2688	0	37610	32628	
2689	0	46736	31813	
2690	0	47610	32827	
2691	0	42204	31200	
2692	0	34044	30804	
2693	0	24216	31750	
2694	0	15780	32664	
2695	0	8962	32801	
2696	0	8551	31989	
2697	0	19434	31732	
2698	0	25400	32088	
2699	0	32064	33860	
2700	0	38650	35424	
2701	0	42976	34148	
2702	0	40570	32805	
2703	0	38514	33422	
2704	0	33564	33524	
2705	0	25912	33924	
2706	0	21200	32736	
2707	0	22200	31262	
2708	0	26152	30959	
2709	0	30877	30628	
2710	0	37988	32098	
2711	0	48740	32856	
2712	0	54984	31994	
2713	0	58784	34436	
2714	0	58386	36114	
2715	0	51312	35632	
2716	0	39768	35276	
2717	0	29408	32936	
2718	0	19984	31416	
2719	0	14500	30008	
2720	0	12706	30121	
2721	0	12994	30228	
2722	0	14930	31977	
2723	0	19346	34082	
2724	0	26808	34459	
2725	0	34580	33236	
2726	0	39804	32184	
2727	0	42810	31512	
2728	0	46328	33340	
2729	0	44750	33682	
2730	0	42503	31994	
2731	0	41828	29334	
2732	0	39200	31400	
2733	0	38672	34112	
2734	0	37458	33287	
2735	0	36844	33272	
2736	0	34880	33464	
2737	0	31872	33499	
2738	0	27528	33238	
2739	0	22889	32728	
2740	0	20313	31768	
2741	0	18264	32044	
2742	0	18180	33072	
2743	0	19452	34279	
2744	0	25632	34546	
2745	0	29774	34016	
2746	0	30776	32331	
2747	0	31540	30081	
2748	0	35002	31664	
2749	0	42542	32480	
2750	0	45976	33566	
2751	0	45702	34668	
2752	0	42508	35242	
2753	0	40324	34259	
2754	0	37206	32804	
2755	0	33148	30783	
2756	0	36698	29537	
2757	0	36590	29323	
2758	0	31616	31110	
2759	0	26348	34180	
2760	0	23562	34304	
2761	0	25100	33077	
2762	0	29500	33531	
2763	0	34112	33701	
2764	0	39964	32668	
2765	0	41672	30944	
2766	0	46892	31440	
2767	0	44368	32775	
2768	0	38712	34744	
2769	0	32812	35750	
2770	0	24184	35256	
2771	0	18590	32508	
2772	0	14986	31449	
2773	0	13831	32280	
2774	0	11868	32211	
2775	0	13966	30404	
2776	0	19798	31580	
2777	0	24516	32614	
2778	0	31228	32065	
2779	0	42088	31576	
2780	0	51719	31800	
2781	0	61416	32568	
2782	0	62424	32788	
2783	0	58908	32252	
2784	0	55016	31816	
2785	0	47528	31624	
2786	0	33678	32345	
2787	0	20284	31102	
2788	0	11948	32284	
2789	0	11188	34210	
2790	0	10996	34992	
2791	0	10023	35324	
2792	0	16976	34644	
2793	0	34024	33760	
2794	0	41248	32524	
2795	0	43344	31936	
2796	0	45992	32134	
2797	0	41780	32857	
2798	0	36052	32773	
2799	0	31192	32396	
2800	0	24096	32256	
2801	0	19318	32340	
2802	0	19500	33540	
2803	0	20788	35167	
2804	0	25520	33992	
2805	0	29864	33670	
2806	0	35808	32402	
2807	0	40220	32395	
2808	0	41824	33174	
2809	0	39676	33027	
2810	0	37266	31480	
2811	0	34104	30771	
2812	0	34200	31200	
2813	0	32552	33080	
2814	0	31960	33552	
2815	0	34080	33262	
2816	0	36186	33454	
2817	0	37136	33228	
2818	0	35788	32962	
2819	0	34672	32308	
2820	0	34328	30970	
2821	0	36512	30632	
2822	0	42226	31786	
2823	0	45081	33626	
2824	0	42010	36533	
2825	0	36564	36015	
2826	0	31897	34088	
2827	0	28866	32262	
2828	0	27952	30612	
2829	0	27657	30123	
2830	0	29013	30451	
2831	0	35206	31865	
2832	0	44027	31402	
2833	0	45218	29456	
2834	0	40560	28733	
2835	0	38368	30528	
2836	0	34336	32996	
2837	0	23968	34904	
2838	0	11970	35914	
2839	0	5918	35872	
2840	0	7964	35384	
2841	0	15789	36623	
2842	0	29276	36784	
2843	0	34676	34640	
2844	0	31474	31296	
2845	0	27019	31412	
2846	0	27944	32860	
2847	0	32677	31964	
2848	0	35648	30292	
2849	0	35933	29741	
2850	0	36452	31360	
2851	0	37596	31504	
2852	0	38400	32137	
2853	0	38697	31751	
2854	0	37320	31595	
2855	0	38404	32488	
2856	0	43904	33729	
2857	0	49952	34608	
2858	0	52060	32744	
2859	0	46498	32366	
2860	0	38088	33749	
2861	0	31968	33728	
2862	0	28731	34461	
2863	0	28458	34012	
2864	0	26653	33754	
2865	0	23973	32701	
2866	0	23518	32740	
2867	0	24875	32929	
2868	0	26304	33830	
2869	0	26762	33731	
2870	0	24288	32684	
2871	0	21448	32320	
2872	0	21117	32164	
2873	0	23076	32359	
2874	0	25384	32274	
2875	0	29082	31424	
2876	0	36848	32168	
2877	0	52448	33960	
2878	0	62912	33280	
2879	0	60404	32284	
2880	0	56872	29393	
2881	0	53740	29588	
2882	0	51040	30642	
2883	0	31572	32016	
2884	0	13738	34888	
2885	0	19	37148	
2886	0	0	35609	
2887	0	3238	34192	
2888	0	7276	32640	
2889	0	10664	31942	
2890	0	27273	33648	
2891	0	39116	32120	
2892	0	43450	31232	
2893	0	44316	29838	
2894	0	42192	29284	
2895	0	38883	31557	
2896	0	37832	30839	
2897	0	39240	30745	
2898	0	38842	33993	
2899	0	42284	37200	
2900	0	44244	37790	
2901	0	43872	35096	
2902	0	43770	28912	
2903	0	42818	27003	
2904	0	41012	30278	
2905	0	36836	32563	
2906	0	31366	34456	
2907	0	27684	35707	
2908	0	24473	34424	
2909	0	23290	31196	
2910	0	25520	31138	
2911	0	31240	33607	
2912	0	29458	35176	
2913	0	24576	34304	
2914	0	21781	35532	
2915	0	19528	32992	
2916	0	22535	31488	
2917	0	28960	31229	
2918	0	34632	31818	
2919	0	37938	32888	
2920	0	39232	34133	
2921	0	46272	32376	
2922	0	55942	32284	
2923	0	57544	32712	
2924	0	54820	32408	
2925	0	52032	34789	
2926	0	37248	35520	
2927	0	16898	37272	
2928	0	6001	37676	
2929	0	1200	34916	
2930	0	2069	34162	
2931	0	6076	33736	
2932	0	9632	30368	
2933	0	12650	28932	
2934	0	15244	28610	
2935	0	17476	27436	
2936	0	19403	27270	
2937	0	39888	29616	
2938	0	56288	29841	
2939	0	64790	31108	
2940	0	65472	31802	
2941	0	63004	32317	
2942	0	56802	32576	
2943	0	50136	32584	
2944	0	40690	31432	
2945	0	32932	32150	
2946	0	28534	32060	
2947	0	25054	33330	
2948	0	23362	33996	
2949	0	21880	35110	
2950	0	21140	33287	
2951	0	28120	33100	
2952	0	36216	34034	
2953	0	34792	36188	
2954	0	28944	37448	
2955	0	28246	35890	
2956	0	30154	33602	
2957	0	35860	32138	
2958	0	35538	33832	
2959	0	39284	36143	
2960	0	38338	33398	
2961	0	34064	28349	
2962	0	32592	27554	
2963	0	29578	30046	
2964	0	26548	30240	
2965	0	26116	27155	
2966	0	19448	27848	
2967	0	18888	32706	
2968	0	24320	36560	
2969	0	34656	38216	
2970	0	50376	37014	
2971	0	61066	32912	
2972	0	58544	30180	
2973	0	50144	33396	
2974	0	37832	34922	
2975	0	27248	33434	
2976	0	22540	32778	
2977	0	22937	31886	
2978	0	25920	27092	
2979	0	25974	26819	
2980	0	28032	29264	
2981	0	24514	36138	
2982	0	18180	41920	
2983	0	12480	42532	
2984	0	10290	38248	
2985	0	13364	33008	
2986	0	19521	30388	
2987	0	26440	31596	
2988	0	36650	32012	
2989	0	56864	29812	
2990	0	65464	29028	
2991	0	64519	28980	
2992	0	60280	30514	
2993	0	56600	32660	
2994	0	53512	33253	
2995	0	35748	31936	
2996	0	19296	31630	
2997	0	13044	31388	
2998	0	9177	32643	
2999	0	15744	34311	
3000	0	22600	34426	
3001	0	26616	31032	
3002	0	27768	31887	
3003	0	28134	35136	
3004	0	25048	34552	
3005	0	23888	32397	
3006	0	20770	31700	
3007	0	16002	30680	
3008	0	16428	31558	
3009	0	19320	33683	
3010	0	28688	34032	
3011	0	35268	34310	
3012	0	41504	33276	
3013	0	50856	31056	
3014	0	57536	29916	
3015	0	63720	32662	
3016	0	58776	37536	
3017	0	47212	39564	
3018	0	33914	36185	
3019	0	25744	29276	
3020	0	25716	25252	
3021	0	28796	28432	
3022	0	30148	34700	
3023	0	26653	36256	
3024	0	20528	33864	
3025	0	18790	32150	
3026	0	21952	33180	
3027	0	24944	36103	
3028	0	25768	33629	
3029	0	27172	28456	
3030	0	33876	23833	
3031	0	42156	20756	
3032	0	53960	29112	
3033	0	53460	37448	
3034	0	50568	39208	
3035	0	56236	37810	
3036	0	55316	33970	
3037	0	52664	27744	
3038	0	50168	27032	
3039	0	47980	32652	
3040	0	35888	34056	
3041	0	12048	37632	
3042	0	0	40872	
3043	0	0	41752	
3044	0	0	43866	
3045	0	5195	44664	
3046	0	8899	43996	
3047	0	12024	32953	
3048	0	14696	23892	
3049	0	17002	19268	
3050	0	19001	22871	
3051	0	50440	28264	
3052	0	65448	28788	
3053	0	65472	20964	
3054	0	65466	14960	
3055	0	60848	22389	
3056	0	53296	34656	
3057	0	49424	43260	
3058	0	51744	40620	
3059	0	49778	34856	
3060	0	47690	36966	
3061	0	45828	42704	
3062	0	27664	40120	
3063	0	14764	28616	
3064	0	1377	24842	
3065	0	0	34872	
3066	0	0	44512	
3067	0	3866	42996	
3068	0	7794	34858	
3069	0	11082	28700	
3070	0	27392	24060	
3071	0	34362	22116	
3072	0	37292	24952	
3073	0	41216	29352	
3074	0	41496	32396	
3075	0	43436	33648	
3076	0	50817	31126	
3077	0	59352	27736	
3078	0	54698	31668	
3079	0	45368	36692	
3080	0	41745	36888	
3081	0	43728	32614	
3082	0	49644	36352	
3083	0	46896	38560	
3084	0	40720	35008	
3085	0	36776	23448	
3086	0	32540	25896	
3087	0	28112	42876	
3088	0	21900	54824	
3089	0	13952	48428	
3090	0	11546	28472	
3091	0	15032	22053	
3092	0	18372	30738	
3093	0	22105	33307	
3094	0	24156	30249	
3095	0	28852	28744	
3096	0	33196	29810	
3097	0	42836	29760	
3098	0	46512	27080	
3099	0	37362	26688	
3100	0	28168	25636	
3101	0	24802	30966	
3102	0	24636	38888	
3103	0	29964	36771	
3104	0	26116	31108	
3105	0	24273	30170	
3106	0	32065	34728	
3107	0	46688	39456	
3108	0	59784	42208	
3109	0	56874	38105	
3110	0	42560	35788	
3111	0	29704	38744	
3112	0	19808	33438	
3113	0	13658	28124	
3114	0	15658	23964	
3115	0	15280	28056	
3116	0	15008	32818	
3117	0	17488	29724	
3118	0	24426	24564	
3119	0	32026	25242	
3120	0	39932	31786	
3121	0	50472	37760	
3122	0	54122	40920	
3123	0	47460	34264	
3124	0	37354	29807	
3125	0	26522	36444	
3126	0	28564	37908	
3127	0	49152	30274	
3128	0	54240	31834	
3129	0	45728	37732	
3130	0	37520	36590	
3131	0	32642	31660	
3132	0	26496	26136	
3133	0	16414	25666	
3134	0	12380	31642	
3135	0	5419	32132	
3136	0	7108	32330	
3137	0	10380	34120	
3138	0	13289	36416	
3139	0	15790	39720	
3140	0	48760	36740	
3141	0	65464	38236	
3142	0	65472	30752	
3143	0	63056	19920	
3144	0	58922	23520	
3145	0	47124	32672	
3146	0	29320	32464	
3147	0	17136	34048	
3148	0	10380	38848	
3149	0	22860	38648	
3150	0	32140	36888	
3151	0	38736	33970	
3152	0	43112	30412	
3153	0	43892	30970	
3154	0	39256	35684	
3155	0	26704	31416	
3156	0	15773	28744	
3157	0	13041	31300	
3158	0	16312	36550	
3159	0	22274	34778	
3160	0	32192	26316	
3161	0	38044	24268	
3162	0	38600	31792	
3163	0	37776	36712	
3164	0	46832	36394	
3165	0	52516	31291	
3166	0	43202	31598	
3167	0	27945	33840	
3168	0	19725	34324	
3169	0	14032	34042	
3170	0	7074	29824	
3171	0	9005	26758	
3172	0	12003	37696	
3173	0	39736	46784	
3174	0	45386	46103	
3175	0	45192	32144	
3176	0	42772	26831	
3177	0	40148	24694	
3178	0	38138	29966	
3179	0	33184	37160	
3180	0	27314	31576	
3181	0	26200	20984	
3182	0	29366	21504	
3183	0	37125	29552	
3184	0	40952	36442	
3185	0	42440	36244	
3186	0	43246	28684	
3187	0	45740	25555	
3188	0	43714	31362	
3189	0	41060	40836	
3190	0	34593	47648	
3191	0	30296	42392	
3192	0	26920	30672	
3193	0	21282	29670	
3194	0	23336	33566	
3195	0	27173	29513	
3196	0	30032	23692	
3197	0	39748	26752	
3198	0	49280	34816	
3199	0	48114	38932	
3200	0	41561	36008	
3201	0	37616	36568	
3202	0	43354	37451	
3203	0	45179	29500	
3204	0	43664	30280	
3205	0	37356	32225	
3206	0	23696	35672	
3207	0	9992	32276	
3208	0	2484	28376	
3209	0	1641	28374	
3210	0	5614	30318	
3211	0	9242	28756	
3212	0	30650	36908	
3213	0	39816	41504	
3214	0	46820	40288	
3215	0	48722	33256	
3216	0	44345	27018	
3217	0	42386	26089	
3218	0	40029	25162	
3219	0	34608	28560	
3220	0	31680	33854	
3221	0	31188	39842	
3222	0	29392	37980	
3223	0	30626	28172	
3224	0	41480	25276	
3225	0	47672	30484	
3226	0	44117	37192	
3227	0	37868	40336	
3228	0	26880	37124	
3229	0	14144	32868	
3230	0	6193	35304	
3231	0	7707	41362	
3232	0	9581	39321	
3233	0	12513	31520	
3234	0	14764	22904	
3235	0	22504	24122	
3236	0	36008	30090	
3237	0	49044	30780	
3238	0	55192	27528	
3239	0	61796	25946	
3240	0	64928	28994	
3241	0	61304	32072	
3242	0	50384	32144	
3243	0	37676	28204	
3244	0	34384	34512	
3245	0	34252	44020	
3246	0	32708	49136	
3247	0	29330	43312	
3248	0	28129	34668	
3249	0	31060	29112	
3250	0	30122	26096	
3251	0	23978	32562	
3252	0	19634	33836	
3253	0	19339	32348	
3254	0	19622	32160	
3255	0	19960	37344	
3256	0	25270	36082	
3257	0	30572	30780	
3258	0	39986	30448	
3259	0	46968	29008	
3260	0	42784	24506	
3261	0	35988	26300	
3262	0	32632	28460	
3263	0	25168	31384	
3264	0	20534	30772	
3265	0	20956	35296	
3266	0	19796	41356	
3267	0	23496	35536	
3268	0	47936	26018	
3269	0	61376	31860	
3270	0	61532	38210	
3271	0	58040	34256	
3272	0	54764	24176	
3273	0	51954	29608	
3274	0	49528	36984	
3275	0	31366	44064	
3276	0	24744	38272	
3277	0	20828	30496	
3278	0	17018	32608	
3279	0	11876	37752	
3280	0	4394	34680	
3281	0	2843	30304	
3282	0	7002	29095	
3283	0	12240	30762	
3284	0	13826	30706	
3285	0	14952	26336	
3286	0	18512	28266	
3287	0	33356	34976	
3288	0	46978	41884	
3289	0	60472	40112	
3290	0	65042	34052	
3291	0	62056	29213	
3292	0	55946	26081	
3293	0	50162	25022	
3294	0	47008	27336	
3295	0	40864	34336	
3296	0	32744	41794	
3297	0	21090	41564	
3298	0	13288	37136	
3299	0	11900	26144	
3300	0	9998	20836	
3301	0	14100	22213	
3302	0	24136	30234	
3303	0	31664	36496	
3304	0	34378	37376	
3305	0	32808	36576	
3306	0	33828	36454	
3307	0	31412	40596	
3308	0	27132	40352	
3309	0	25614	29384	
3310	0	32084	29472	
3311	0	38706	33742	
3312	0	47480	32660	
3313	0	59464	28744	
3314	0	61576	29892	
3315	0	58296	31690	
3316	0	54994	34180	
3317	0	52136	31696	
3318	0	49696	25272	
3319	0	40346	29276	
3320	0	23154	35494	
3321	0	15344	32012	
3322	0	13497	27530	
3323	0	12708	27270	
3324	0	6956	33600	
3325	0	2559	33030	
3326	0	6025	33616	
3327	0	9546	37318	
3328	0	12566	45568	
3329	0	15165	50178	
3330	0	27420	39684	
3331	0	45924	30668	
3332	0	58348	21484	
3333	0	65050	19813	
3334	0	65472	29172	
3335	0	61112	36952	
3336	0	57337	42936	
3337	0	54144	38624	
3338	0	51404	29654	
3339	0	37536	25424	
3340	0	25568	32348	
3341	0	16194	37036	
3342	0	5660	31658	
3343	0	0	28036	
3344	0	2794	30464	
3345	0	6868	31521	
3346	0	36928	31396	
3347	0	57724	33424	
3348	0	61828	27828	
3349	0	58638	25990	
3350	0	55320	27794	
3351	0	52400	32154	
3352	0	34112	30122	
3353	0	7803	35564	
3354	0	0	36336	
3355	0	0	39082	
3356	0	5059	44068	
3357	0	8807	45610	
3358	0	14661	34512	
3359	0	25990	34497	
3360	0	36624	32292	
3361	0	51664	22980	
3362	0	56404	20968	
3363	0	53092	30592	
3364	0	49392	37450	
3365	0	51664	41584	
3366	0	54778	40568	
3367	0	49584	33758	
3368	0	40520	35100	
3369	0	28858	30520	
3370	0	17635	27210	
3371	0	4434	27216	
3372	0	1841	28260	
3373	0	5715	25380	
3374	0	9326	26496	
3375	0	12394	29028	
3376	0	27552	27778	
3377	0	40136	29800	
3378	0	45234	36696	
3379	0	50084	40103	
3380	0	52172	36960	
3381	0	49674	36949	
3382	0	46332	35991	
3383	0	42650	30361	
3384	0	39562	27002	
3385	0	41084	28349	
3386	0	37712	28140	
3387	0	28532	29970	
3388	0	18656	37512	
3389	0	15486	45052	
3390	0	17040	40236	
3391	0	20714	40282	
3392	0	29480	38573	
3393	0	38728	28782	
3394	0	44628	22540	
3395	0	43936	25852	
3396	0	40496	30162	
3397	0	36448	34987	
3398	0	35248	33584	
3399	0	38475	29680	
3400	0	41700	31848	
3401	0	43732	33976	
3402	0	47854	35266	
3403	0	45548	38820	
3404	0	36672	38676	
3405	0	22728	29056	
3406	0	13242	25370	
3407	0	14630	33937	
3408	0	21450	38365	
3409	0	28608	38736	
3410	0	30700	36636	
3411	0	31213	25545	
3412	0	30726	24115	
3413	0	30440	25971	
3414	0	30120	30707	
3415	0	33232	29284	
3416	0	40474	28556	
3417	0	42512	34294	
3418	0	39816	36451	
3419	0	38112	32996	
3420	0	36252	30482	
3421	0	30416	34452	
3422	0	27232	37032	
3423	0	25272	36596	
3424	0	21724	42072	
3425	0	18763	47032	
3426	0	21218	40488	
3427	0	31404	23904	
3428	0	42468	23912	
3429	0	46982	25232	
3430	0	44536	26290	
3431	0	41708	29114	
3432	0	34532	34324	
3433	0	22736	37580	
3434	0	13216	38488	
3435	0	15980	35260	
3436	0	28186	30629	
3437	0	42754	31554	
3438	0	48916	30996	
3439	0	47110	30520	
3440	0	45337	28166	
3441	0	35965	28754	
3442	0	26650	33008	
3443	0	23561	37530	
3444	0	28696	33866	
3445	0	38018	34520	
3446	0	47480	33588	
3447	0	53000	36848	
3448	0	52432	29312	
3449	0	44944	26626	
3450	0	32460	30568	
3451	0	15952	34456	
3452	0	4130	33212	
3453	0	652	35066	
3454	0	4626	36376	
3455	0	8408	36240	
3456	0	14132	35658	
3457	0	27360	32584	
3458	0	33546	30618	
3459	0	43228	31748	
3460	0	47868	30630	
3461	0	45816	33728	
3462	0	43996	32839	
3463	0	39018	34082	
3464	0	34528	32368	
3465	0	34768	29284	
3466	0	34192	29144	
3467	0	28892	36156	
3468	0	24612	40864	
3469	0	31500	37024	
3470	0	38968	27758	
3471	0	48520	24646	
3472	0	58848	27928	
3473	0	57856	28496	
3474	0	54842	26661	
3475	0	52048	33230	
3476	0	49596	39942	
3477	0	47488	36714	
3478	0	30518	28424	
3479	0	0	31460	
3480	0	0	41912	
3481	0	0	46233	
3482	0	3059	34152	
3483	0	7145	32416	
3484	0	10548	34128	
3485	0	13426	27448	
3486	0	19256	24512	
3487	0	41576	25968	
3488	0	49032	29358	
3489	0	53732	36144	
3490	0	56356	39243	
3491	0	57272	34244	
3492	0	55052	30413	
3493	0	46304	32880	
3494	0	32948	32857	
3495	0	27299	33014	
3496	0	27352	36359	
3497	0	30480	28952	
3498	0	37460	27860	
3499	0	43656	33356	
3500	0	49656	32129	
3501	0	46592	28610	
3502	0	42368	29289	
3503	0	44984	28512	
3504	0	46008	32520	
3505	0	39552	39098	
3506	0	26756	35218	
3507	0	12923	30352	
3508	0	2173	36648	
3509	0	0	41204	
3510	0	2296	37328	
3511	0	6477	38028	
3512	0	9977	36042	
3513	0	12934	30340	
3514	0	32560	27672	
3515	0	38532	25086	
3516	0	41336	28280	
3517	0	41544	30727	
3518	0	40584	30788	
3519	0	41888	32394	
3520	0	44176	36548	
3521	0	47234	38640	
3522	0	49456	37127	
3523	0	49940	35246	
3524	0	48720	31050	
3525	0	43655	30490	
3526	0	40140	31538	
3527	0	38216	31200	
3528	0	37152	31163	
3529	0	30652	31896	
3530	0	21700	32692	
3531	0	17153	26952	
3532	0	11764	34248	
3533	0	16672	37076	
3534	0	24844	35920	
3535	0	31410	33612	
3536	0	35800	30792	
3537	0	39392	25786	
3538	0	39620	28920	
3539	0	39066	34649	
3540	0	36144	35178	
3541	0	31489	34873	
3542	0	27699	35304	
3543	0	22052	37257	
3544	0	21010	34635	
3545	0	25348	33080	
3546	0	30168	30846	
3547	0	33744	30662	
3548	0	36226	29016	
3549	0	37869	29944	
3550	0	35843	31516	
3551	0	33064	33837	
3552	0	32736	35058	
3553	0	33688	37654	
3554	0	34994	35168	
3555	0	36036	32494	
3556	0	37304	34424	
3557	0	37488	31805	
3558	0	37526	29417	
3559	0	37664	30024	
3560	0	37768	29408	
3561	0	36738	30382	
3562	0	37056	32186	
3563	0	38080	33682	
3564	0	34106	34096	
3565	0	27288	34122	
3566	0	23424	32936	
3567	0	23141	31778	
3568	0	27924	31867	
3569	0	36025	33148	
3570	0	38786	31986	
3571	0	36000	32378	
3572	0	31777	34268	
3573	0	26252	34788	
3574	0	25157	31542	
3575	0	30504	32746	
3576	0	38472	34852	
3577	0	43936	37171	
3578	0	43632	36347	
3579	0	39598	33610	
3580	0	31820	30141	
3581	0	26416	30308	
3582	0	22204	30632	
3583	0	12960	31624	
3584	0	11739	32545	
3585	0	21440	32574	
3586	0	28448	33049	
3587	0	29400	33580	
3588	0	34040	35402	
3589	0	41160	32386	
3590	0	45012	29524	
3591	0	47208	32674	
3592	0	45112	32110	
3593	0	41122	32836	
3594	0	33964	33492	
3595	0	25733	30904	
3596	0	25796	33771	
3597	0	31747	36082	
3598	0	37816	32440	
3599	0	40964	35768	
3600	0	37056	35892	
3601	0	31128	30657	
3602	0	24740	32516	
3603	0	24269	31412	
3604	0	30452	23716	
3605	0	37008	21922	
3606	0	41036	27867	
3607	0	43860	32680	
3608	0	42962	34280	
3609	0	35650	37264	
3610	0	28580	42760	
3611	0	20093	43104	
3612	0	15536	38406	
3613	0	17688	33708	
3614	0	24890	26760	
3615	0	33620	27624	
3616	0	36440	31819	
3617	0	36951	31878	
3618	0	36072	35487	
3619	0	36230	34848	
3620	0	37358	34804	
3621	0	38644	34547	
3622	0	41736	29666	
3623	0	42634	28077	
3624	0	38088	26836	
3625	0	28882	30060	
3626	0	23872	34674	
3627	0	21032	34424	
3628	0	22892	28468	
3629	0	28652	31302	
3630	0	33600	38008	
3631	0	35344	35404	
3632	0	33936	31461	
3633	0	31449	30680	
3634	0	30392	30971	
3635	0	30490	33853	
3636	0	34202	34692	
3637	0	39740	33844	
3638	0	42928	33616	
3639	0	40776	33195	
3640	0	35709	32532	
3641	0	30274	33872	
3642	0	25744	34870	
3643	0	26836	35032	
3644	0	31580	34096	
3645	0	37442	33565	
3646	0	41615	33912	
3647	0	42488	33476	
3648	0	40554	31887	
3649	0	32332	31466	
3650	0	22280	31632	
3651	0	18158	31412	
3652	0	19032	31482	
3653	0	25328	31040	
3654	0	33055	30976	
3655	0	36148	31027	
3656	0	35104	33104	
3657	0	30836	32746	
3658	0	32416	30812	
3659	0	36120	29902	
3660	0	39740	30112	
3661	0	37944	31536	
3662	0	35332	32907	
3663	0	38274	33740	
3664	0	39932	33439	
3665	0	38834	34134	
3666	0	32912	34454	
3667	0	28624	35572	
3668	0	30498	36504	
3669	0	30392	36359	
3670	0	26734	35746	
3671	0	23174	31140	
3672	0	22764	28338	
3673	0	26558	31309	
3674	0	28208	33592	
3675	0	25377	34592	
3676	0	29539	34610	
3677	0	32664	33332	
3678	0	31932	30493	
3679	0	34296	30690	
3680	0	36584	32984	
3681	0	36844	34036	
3682	0	39738	32644	
3683	0	42584	30254	
3684	0	46728	30920	
3685	0	48120	32008	
3686	0	45092	34427	
3687	0	38296	31908	
3688	0	29088	32224	
3689	0	19507	35206	
3690	0	19062	34528	
3691	0	19536	29186	
3692	0	20522	30601	
3693	0	26538	29703	
3694	0	31904	32104	
3695	0	32650	37755	
3696	0	33926	36464	
3697	0	36990	30880	
3698	0	37004	28973	
3699	0	41373	30104	
3700	0	47260	29128	
3701	0	50084	32602	
3702	0	44198	37344	
3703	0	38112	38346	
3704	0	32604	38348	
3705	0	28840	33860	
3706	0	33464	31030	
3707	0	32392	29000	
3708	0	25576	28504	
3709	0	20770	31154	
3710	0	15692	34572	
3711	0	12656	37092	
3712	0	15930	35991	
3713	0	23030	32658	
3714	0	29104	29584	
3715	0	30488	30131	
3716	0	33452	32282	
3717	0	37044	31040	
3718	0	39940	31614	
3719	0	41300	33336	
3720	0	42728	34560	
3721	0	44372	33636	
3722	0	40752	33180	
3723	0	34470	32404	
3724	0	28185	32056	
3725	0	24484	32910	
3726	0	27420	32652	
3727	0	35168	32042	
3728	0	43425	32636	
3729	0	46468	33213	
3730	0	40524	34438	
3731	0	35928	34392	
3732	0	33644	34248	
3733	0	31056	36187	
3734	0	27848	35884	
3735	0	22328	33964	
3736	0	19675	31448	
3737	0	25760	28492	
3738	0	35066	27581	
3739	0	35658	29875	
3740	0	35496	30030	
3741	0	35068	30456	
3742	0	33590	32541	
3743	0	32524	33652	
3744	0	31566	32674	
3745	0	32400	31970	
3746	0	30892	32093	
3747	0	29468	32372	
3748	0	26036	32904	
3749	0	24992	33250	
3750	0	31888	32997	
3751	0	40016	31040	
3752	0	44592	29273	
3753	0	44056	33001	
3754	0	42386	36256	
3755	0	41566	36352	
3756	0	36244	33556	
3757	0	22939	34548	
3758	0	10129	34708	
3759	0	9838	32272	
3760	0	22082	32192	
3761	0	32158	35158	
3762	0	40058	36448	
3763	0	44900	34048	
3764	0	45059	32764	
3765	0	42910	35776	
3766	0	43314	33218	
3767	0	44376	29553	
3768	0	44360	29089	
3769	0	40908	30464	
3770	0	36432	30690	
3771	0	27420	32210	
3772	0	15084	34360	
3773	0	11411	34332	
3774	0	12597	33506	
3775	0	17202	31283	
3776	0	23004	29516	
3777	0	30356	27492	
3778	0	32857	30051	
3779	0	29850	33120	
3780	0	29520	35888	
3781	0	31976	39084	
3782	0	39044	39410	
3783	0	45196	35680	
3784	0	47384	32972	
3785	0	49096	32333	
3786	0	48992	30164	
3787	0	45036	27331	
3788	0	34736	26560	
3789	0	23432	29910	
3790	0	19438	30610	
3791	0	17618	33408	
3792	0	22804	36552	
3793	0	36744	35596	
3794	0	47120	32056	
3795	0	51032	29600	
3796	0	47805	30221	
3797	0	40386	32564	
3798	0	32560	33632	
3799	0	23978	36052	
3800	0	14784	36680	
3801	0	7509	35132	
3802	0	16068	33196	
3803	0	32292	32608	
3804	0	43840	32872	
3805	0	48624	32168	
3806	0	44852	32888	
3807	0	36584	33713	
3808	0	27496	34668	
3809	0	17746	34754	
3810	0	10160	29824	
3811	0	9438	30188	
3812	0	16438	34376	
3813	0	29232	34489	
3814	0	39324	28764	
3815	0	45650	27636	
3816	0	48184	30400	
3817	0	47136	33028	
3818	0	42968	35028	
3819	0	36108	34524	
3820	0	33628	33315	
3821	0	34892	32584	
3822	0	35260	32312	
3823	0	35896	32732	
3824	0	35456	33140	
3825	0	32505	32514	
3826	0	29724	31623	
3827	0	27272	32373	
3828	0	29056	34119	
3829	0	29284	33799	
3830	0	29860	32344	
3831	0	33573	31883	
3832	0	33220	33213	
3833	0	32892	34030	
3834	0	38130	33648	
3835	0	43116	31264	
3836	0	46452	28589	
3837	0	48473	29254	
3838	0	48957	31696	
3839	0	46173	33623	
3840	0	41642	33091	
3841	0	37204	32570	
3842	0	33172	33936	
3843	0	36376	37920	
3844	0	32960	39208	
3845	0	26256	38458	
3846	0	15320	33808	
3847	0	2991	30584	
3848	0	1002	30574	
3849	0	9394	30268	
3850	0	13966	29216	
3851	0	14880	29352	
3852	0	19652	29643	
3853	0	29240	31248	
3854	0	45248	32828	
3855	0	58392	32452	
3856	0	63112	32280	
3857	0	59176	32750	
3858	0	46288	33112	
3859	0	30764	34712	
3860	0	16224	35612	
3861	0	6202	35168	
3862	0	6473	33516	
3863	0	9756	32560	
3864	0	19285	32632	
3865	0	31541	32996	
3866	0	41006	35048	
3867	0	46224	31328	
3868	0	47300	27846	
3869	0	45044	27098	
3870	0	41672	29851	
3871	0	40650	32709	
3872	0	40648	34181	
3873	0	41685	35117	
3874	0	42664	33744	
3875	0	39344	33401	
3876	0	33864	33189	
3877	0	31045	32772	
3878	0	26586	32052	
3879	0	24480	32632	
3880	0	26092	32903	
3881	0	27073	34295	
3882	0	29794	35163	
3883	0	32706	35941	
3884	0	32712	35834	
3885	0	33600	35335	
3886	0	36056	34834	
3887	0	37728	33622	
3888	0	36240	28814	
3889	0	36882	27168	
3890	0	42364	29548	
3891	0	42904	30479	
3892	0	38148	29702	
3893	0	31878	28946	
3894	0	27416	30772	
3895	0	25417	33893	
3896	0	24880	36045	
3897	0	31052	35362	
3898	0	39307	33876	
3899	0	42376	32342	
3900	0	39768	33234	
3901	0	37954	34523	
3902	0	37906	34144	
3903	0	35736	32634	
3904	0	30154	30060	
3905	0	29496	31321	
3906	0	29048	34141	
3907	0	26496	35168	
3908	0	24346	34500	
3909	0	24192	33455	
3910	0	21133	32824	
3911	0	19104	32903	
3912	0	16363	32530	
3913	0	12401	32420	
3914	0	20018	33890	
3915	0	29170	31376	
3916	0	35258	29691	
3917	0	37828	34120	
3918	0	37458	35291	
3919	0	35820	32366	
3920	0	36680	28796	
3921	0	38548	27864	
3922	0	38064	29053	
3923	0	36768	31821	
3924	0	38828	34166	
3925	0	40136	35677	
3926	0	40666	37000	
3927	0	41754	35354	
3928	0	42149	33735	
3929	0	43108	30538	
3930	0	42688	28961	
3931	0	40122	30690	
3932	0	36368	33104	
3933	0	30852	36542	
3934	0	24448	38466	
3935	0	20762	37372	
3936	0	23108	35049	
3937	0	28248	30344	
3938	0	41632	27564	
3939	0	50554	28713	
3940	0	52440	32262	
3941	0	45226	35554	
3942	0	39034	35035	
3943	0	34692	31021	
3944	0	27920	29500	
3945	0	18949	30616	
3946	0	7583	31900	
3947	0	1769	32768	
3948	0	4862	33740	
3949	0	13103	34092	
3950	0	18300	33286	
3951	0	23996	33992	
3952	0	31144	33028	
3953	0	37151	31989	
3954	0	39368	31728	
3955	0	40012	31947	
3956	0	38072	31956	
3957	0	35696	32063	
3958	0	33796	32850	
3959	0	37296	31492	
3960	0	44153	30732	
3961	0	52265	32896	
3962	0	59608	34992	
3963	0	58488	36028	
3964	0	55388	35446	
3965	0	52504	33679	
3966	0	32260	31992	
3967	0	15960	32272	
3968	0	3769	32712	
3969	0	0	32212	
3970	0	3996	31188	
3971	0	7882	29157	
3972	0	24262	30450	
3973	0	37330	33657	
3974	0	45210	34592	
3975	0	49192	35272	
3976	0	48788	34122	
3977	0	45382	32720	
3978	0	43371	32226	
3979	0	41152	31904	
3980	0	38532	31046	
3981	0	36082	31296	
3982	0	31698	32741	
3983	0	26766	33068	
3984	0	24334	32922	
3985	0	23940	32863	
3986	0	26680	33336	
3987	0	28844	33744	
3988	0	30652	33558	
3989	0	31504	32494	
3990	0	33492	30964	
3991	0	34082	30930	
3992	0	34957	32775	
3993	0	33081	34434	
3994	0	32186	34856	
3995	0	32256	32258	
3996	0	32740	30740	
3997	0	28504	32226	
3998	0	29808	31798	
3999	0	35732	33124	
4000	0	39272	34320	
4001	0	38116	35527	
4002	0	35836	34612	
4003	0	33812	33356	
4004	0	33248	31970	
4005	0	31670	31688	
4006	0	31164	32565	
4007	0	31744	31304	
4008	0	29972	30050	
4009	0	29473	30123	
4010	0	32441	31617	
4011	0	36440	31564	
4012	0	38458	31256	
4013	0	37488	32166	
4014	0	35420	32678	
4015	0	35450	32978	
4016	0	36772	34373	
4017	0	37062	33417	
4018	0	36837	31392	
4019	0	40176	33672	
4020	0	39208	35212	
4021	0	36320	36508	
4022	0	33248	35980	
4023	0	32066	32390	
4024	0	29462	30695	
4025	0	26601	31214	
4026	0	21920	32052	
4027	0	20376	33248	
4028	0	19324	33004	
4029	0	20874	31521	
4030	0	19332	31702	
4031	0	18739	31804	
4032	0	18460	31784	
4033	0	18332	32427	
4034	0	24192	32320	
4035	0	32298	33569	
4036	0	38976	34142	
4037	0	40858	31968	
4038	0	44363	30880	
4039	0	44384	31879	
4040	0	42984	34194	
4041	0	42001	35041	
4042	0	39268	33682	
4043	0	37546	33559	
4044	0	34738	33736	
4045	0	30126	34288	
4046	0	27652	33444	
4047	0	27964	32327	
4048	0	30068	32550	
4049	0	35772	32696	
4050	0	41456	32808	
4051	0	43496	32242	
4052	0	43085	33088	
4053	0	43914	33256	
4054	0	41488	32832	
4055	0	36128	32230	
4056	0	32333	32456	
4057	0	28604	31424	
4058	0	27230	30670	
4059	0	35162	31034	
4060	0	39760	32304	
4061	0	41184	32857	
4062	0	37564	33032	
4063	0	32069	33032	
4064	0	29226	32738	
4065	0	27648	32775	
4066	0	26936	32793	
4067	0	23688	32422	
4068	0	18373	32962	
4069	0	13144	33664	
4070	0	16374	33728	
4071	0	29212	34490	
4072	0	35488	34036	
4073	0	39378	33398	
4074	0	39972	33061	
4075	0	37490	31980	
4076	0	38164	31280	
4077	0	38535	31664	
4078	0	37106	32304	
4079	0	36658	34228	
4080	0	38656	34708	
4081	0	38105	33846	
4082	0	41794	33276	
4083	0	46138	32668	
4084	0	43656	31318	
4085	0	35556	30500	
4086	0	23073	29992	
4087	0	15006	30968	
4088	0	11438	30253	
4089	0	7460	32032	
4090	0	15456	35816	
4091	0	29976	36734	
4092	0	36193	34564	
4093	0	41056	32532	
4094	0	44720	32584	
4095	0	47056	29482	
4096	0	47056	27476	
4097	0	41334	28643	
4098	0	30386	32292	
4099	0	20260	34176	
4100	0	14890	33372	
4101	0	10566	30060	
4102	0	8708	30041	
4103	0	18332	32740	
4104	0	31252	35376	
4105	0	41736	33842	
4106	0	48048	33628	
4107	0	48466	33196	
4108	0	53544	32872	
4109	0	52808	35418	
4110	0	46210	34310	
4111	0	35808	32516	
4112	0	35312	32826	
4113	0	34524	33904	
4114	0	30288	33740	
4115	0	25796	33092	
4116	0	22548	34404	
4117	0	20772	35165	
4118	0	23964	36068	
4119	0	31720	34778	
4120	0	34354	34164	
4121	0	34232	32350	
4122	0	29516	29500	
4123	0	26652	29645	
4124	0	29625	30056	
4125	0	38230	32200	
4126	0	38764	34065	
4127	0	36152	33016	
4128	0	33984	32571	
4129	0	31426	33140	
4130	0	28528	33432	
4131	0	24676	32982	
4132	0	22464	32376	
4133	0	21965	30820	
4134	0	23440	30476	
4135	0	26156	31019	
4136	0	30456	31270	
4137	0	37884	32084	
4138	0	43168	33626	
4139	0	44864	34070	
4140	0	52089	32608	
4141	0	53304	31356	
4142	0	46862	30694	
4143	0	38498	32744	
4144	0	33141	32552	
4145	0	33888	34376	
4146	0	32932	34331	
4147	0	32834	32969	
4148	0	33400	33065	
4149	0	32752	33166	
4150	0	31296	32334	
4151	0	29320	31909	
4152	0	25352	31177	
4153	0	22356	32770	
4154	0	22178	33662	
4155	0	23304	33859	
4156	0	25289	33231	
4157	0	28284	31476	
4158	0	30504	31460	
4159	0	33108	31392	
4160	0	35612	32669	
4161	0	35786	34919	
4162	0	35372	34546	
4163	0	37168	34581	
4164	0	37842	34148	
4165	0	41056	32836	
4166	0	42856	32108	
4167	0	41784	31599	
4168	0	42048	32884	
4169	0	38816	33150	
4170	0	35794	30140	
4171	0	33240	30892	
4172	0	31764	34168	
4173	0	28337	37810	
4174	0	32005	35404	
4175	0	31608	32334	
4176	0	31062	29594	
4177	0	30722	30137	
4178	0	27872	35066	
4179	0	25100	33626	
4180	0	23117	33756	
4181	0	20300	33846	
4182	0	17228	32775	
4183	0	18054	31953	
4184	0	26877	30872	
4185	0	37455	31306	
4186	0	41266	30209	
4187	0	41236	29042	
4188	0	35690	30189	
4189	0	29088	32068	
4190	0	23857	33005	
4191	0	26352	34635	
4192	0	29169	35828	
4193	0	29916	38186	
4194	0	29484	37424	
4195	0	29968	35609	
4196	0	30066	33836	
4197	0	28324	31911	
4198	0	28804	29253	
4199	0	34034	27072	
4200	0	39682	27628	
4201	0	43676	30152	
4202	0	44679	31883	
4203	0	45703	32292	
4204	0	48184	31832	
4205	0	51664	32504	
4206	0	52000	33244	
4207	0	47170	33112	
4208	0	40520	34132	
4209	0	32962	34088	
4210	0	29124	33864	
4211	0	24638	32724	
4212	0	19294	32933	
4213	0	18532	32100	
4214	0	18554	31530	
4215	0	19936	33214	
4216	0	22852	34819	
4217	0	22256	34747	
4218	0	26352	34477	
4219	0	34372	32808	
4220	0	38252	33446	
4221	0	37442	32584	
4222	0	35532	31896	
4223	0	35002	31644	
4224	0	35744	32350	
4225	0	37780	33032	
4226	0	46880	33980	
4227	0	51372	33146	
4228	0	50290	34016	
4229	0	45364	34818	
4230	0	39136	32217	
4231	0	32964	31660	
4232	0	25688	33496	
4233	0	17040	33744	
4234	0	9172	32906	
4235	0	7467	32263	
4236	0	8574	31440	
4237	0	11618	31052	
4238	0	20640	31851	
4239	0	27681	30905	
4240	0	35394	32844	
4241	0	43828	32272	
4242	0	53224	32912	
4243	0	62040	33198	
4244	0	61074	33410	
4245	0	57568	33080	
4246	0	54368	32052	
4247	0	43296	32752	
4248	0	25016	33892	
4249	0	12256	32800	
4250	0	2756	31320	
4251	0	1410	32228	
4252	0	5420	33081	
4253	0	9078	32293	
4254	0	12185	31652	
4255	0	14841	30720	
4256	0	32312	31072	
4257	0	41564	32208	
4258	0	44474	31839	
4259	0	44604	31974	
4260	0	49002	32348	
4261	0	54872	32228	
4262	0	54464	32894	
4263	0	52650	34112	
4264	0	53506	34416	
4265	0	52328	34430	
4266	0	48968	31962	
4267	0	44758	30589	
4268	0	43904	31879	
4269	0	44912	33524	
4270	0	37304	34260	
4271	0	23940	34824	
4272	0	9956	33312	
4273	0	1241	33500	
4274	0	1859	35138	
4275	0	11985	35056	
4276	0	23592	34063	
4277	0	28008	30928	
4278	0	31996	29060	
4279	0	33860	30297	
4280	0	35089	32304	
4281	0	35096	32790	
4282	0	35190	32924	
4283	0	33258	32758	
4284	0	30052	33720	
4285	0	26960	34865	
4286	0	23284	35104	
4287	0	21750	35054	
4288	0	22936	34395	
4289	0	25234	33985	
4290	0	27378	32223	
4291	0	29622	28096	
4292	0	34192	27940	
4293	0	38368	30054	
4294	0	44024	31904	
4295	0	51056	32386	
4296	0	53028	33184	
4297	0	51004	31821	
4298	0	45618	30356	
4299	0	39436	31418	
4300	0	38506	32437	
4301	0	40028	34500	
4302	0	41906	35616	
4303	0	46864	34009	
4304	0	45196	33148	
4305	0	38770	32756	
4306	0	34444	32342	
4307	0	26672	32931	
4308	0	21112	33860	
4309	0	24990	34702	
4310	0	28594	34498	
4311	0	25384	32740	
4312	0	22664	30715	
4313	0	24929	31152	
4314	0	18946	31280	
4315	0	6652	31440	
4316	0	5634	32012	
4317	0	8956	31768	
4318	0	12046	30814	
4319	0	14718	30757	
4320	0	30672	31924	
4321	0	46184	34426	
4322	0	65456	35460	
4323	0	65472	36080	
4324	0	61280	35504	
4325	0	46520	34080	
4326	0	34178	31256	
4327	0	25628	31088	
4328	0	22004	31977	
4329	0	20034	32707	
4330	0	21534	31875	
4331	0	23240	33509	
4332	0	27440	34488	
4333	0	35332	34072	
4334	0	54200	33568	
4335	0	60752	32040	
4336	0	57964	29636	
4337	0	54784	30100	
4338	0	51954	31872	
4339	0	37248	35296	
4340	0	12869	38232	
4341	0	0	35634	
4342	0	0	31980	
4343	0	3633	33264	
4344	0	7618	32476	
4345	0	10945	31160	
4346	0	13768	29520	
4347	0	16204	30645	
4348	0	37472	31505	
4349	0	48272	31516	
4350	0	59208	31368	
4351	0	65458	31984	
4352	0	64300	32307	
4353	0	60248	33005	
4354	0	56608	35024	
4355	0	53504	39528	
4356	0	42980	39602	
4357	0	24548	33876	
4358	0	13572	31474	
4359	0	6923	30318	
4360	0	5007	30632	
4361	0	9252	30964	
4362	0	18756	28584	
4363	0	27408	27188	
4364	0	37305	28100	
4365	0	45179	31152	
4366	0	57688	33366	
4367	0	59584	32820	
4368	0	56560	33935	
4369	0	53536	30774	
4370	0	50888	31120	
4371	0	48584	34276	
4372	0	45896	37144	
4373	0	12600	38012	
4374	0	0	33522	
4375	0	0	29892	
4376	0	0	30602	
4377	0	5058	34957	
4378	0	8787	36412	
4379	0	11934	31992	
4380	0	14616	27613	
4381	0	32556	27902	
4382	0	40228	31082	
4383	0	42746	33864	
4384	0	46092	36480	
4385	0	45612	35120	
4386	0	46048	33224	
4387	0	51020	32897	
4388	0	57728	31980	
4389	0	59208	30725	
4390	0	53449	31476	
4391	0	46972	33067	
4392	0	44242	33370	
4393	0	43122	33914	
4394	0	43488	33360	
4395	0	38712	32188	
4396	0	28257	30428	
4397	0	16372	31056	
4398	0	12576	30908	
4399	0	9602	32888	
4400	0	1611	33866	
4401	0	3370	35018	
4402	0	9280	34472	
4403	0	25162	30996	
4404	0	30272	29772	
4405	0	30432	31861	
4406	0	29514	33432	
4407	0	32204	38824	
4408	0	43410	38320	
4409	0	50980	36564	
4410	0	48352	36773	
4411	0	41418	34724	
4412	0	34480	33126	
4413	0	31838	32716	
4414	0	31104	34468	
4415	0	28632	34902	
4416	0	25338	33313	
4417	0	22640	31178	
4418	0	29328	27840	
4419	0	44273	27652	
4420	0	55248	27744	
4421	0	58724	29096	
4422	0	56856	29882	
4423	0	53888	30896	
4424	0	51196	30643	
4425	0	48552	30267	
4426	0	33436	30916	
4427	0	17924	32840	
4428	0	3651	36322	
4429	0	0	35687	
4430	0	0	35003	
4431	0	4998	33896	
4432	0	8740	34178	
4433	0	11896	36136	
4434	0	34264	33088	
4435	0	48040	21056	
4436	0	52032	18650	
4437	0	55432	30700	
4438	0	52200	46840	
4439	0	44393	48966	
4440	0	42596	34434	
4441	0	37186	25466	
4442	0	37284	27315	
4443	0	41386	31832	
4444	0	45857	33034	
4445	0	42448	33212	
4446	0	38690	35673	
4447	0	31769	33186	
4448	0	20440	32760	
4449	0	6752	31490	
4450	0	887	30648	
4451	0	4536	31516	
4452	0	8322	32829	
4453	0	11547	33478	
4454	0	14292	34684	
4455	0	28112	32212	
4456	0	41696	30954	
4457	0	51610	33736	
4458	0	56376	37228	
4459	0	60800	36708	
4460	0	54922	33336	
4461	0	40468	33210	
4462	0	34372	33124	
4463	0	38416	33258	
4464	0	43312	32400	
4465	0	44708	32526	
4466	0	43108	34109	
4467	0	38872	34212	
4468	0	33460	34292	
4469	0	26916	32418	
4470	0	23520	27912	
4471	0	26627	27372	
4472	0	28114	32028	
4473	0	27096	37452	
4474	0	27568	36326	
4475	0	31080	33556	
4476	0	38984	30539	
4477	0	45238	29088	
4478	0	39480	25688	
4479	0	30784	26352	
4480	0	24174	29090	
4481	0	22025	35448	
4482	0	21414	34209	
4483	0	22316	25504	
4484	0	17226	29196	
4485	0	11490	34832	
4486	0	9652	36096	
4487	0	12257	38875	
4488	0	14868	43173	
4489	0	17163	42380	
4490	0	19128	36200	
4491	0	33264	25440	
4492	0	44324	27314	
4493	0	51572	32360	
4494	0	53364	34427	
4495	0	48034	33624	
4496	0	42502	33087	
4497	0	43176	32057	
4498	0	49692	29116	
4499	0	56412	29544	
4500	0	58392	34352	
4501	0	56840	41472	
4502	0	53952	39082	
4503	0	51280	29884	
4504	0	48944	25605	
4505	0	46936	26094	
4506	0	37746	28132	
4507	0	23418	30898	
4508	0	13830	32124	
4509	0	13672	36152	
4510	0	10136	40312	
4511	0	6265	39904	
4512	0	2491	35318	
4513	0	4419	30912	
4514	0	8086	29939	
4515	0	11314	32379	
4516	0	14074	29446	
4517	0	21672	25580	
4518	0	40274	25776	
4519	0	60376	29996	
4520	0	65456	36432	
4521	0	65480	42132	
4522	0	60752	42544	
4523	0	57008	32732	
4524	0	53848	27536	
4525	0	32617	30084	
4526	0	11129	35884	
4527	0	0	35492	
4528	0	1513	32698	
4529	0	5712	35078	
4530	0	17348	38982	
4531	0	24258	36482	
4532	0	29942	30578	
4533	0	34628	19006	
4534	0	35196	19097	
4535	0	40200	28234	
4536	0	49944	32300	
4537	0	53884	33240	
4538	0	52568	33520	
4539	0	54072	33392	
4540	0	56272	32328	
4541	0	53884	34017	
4542	0	51256	35452	
4543	0	45664	35060	
4544	0	29612	38036	
4545	0	18585	37256	
4546	0	7769	35800	
4547	0	0	37548	
4548	0	0	36824	
4549	0	6990	30072	
4550	0	15732	27526	
4551	0	28178	29120	
4552	0	33922	29636	
4553	0	35996	33076	
4554	0	31966	34299	
4555	0	29836	32933	
4556	0	33874	34608	
4557	0	42644	34738	
4558	0	41149	33661	
4559	0	40736	29452	
4560	0	42132	26704	
4561	0	44088	26464	
4562	0	45932	28445	
4563	0	37714	31868	
4564	0	24466	34994	
4565	0	14432	35169	
4566	0	9056	35866	
4567	0	9102	34336	
4568	0	27233	36644	
4569	0	47424	38346	
4570	0	56000	38018	
4571	0	55480	36834	
4572	0	48130	37920	
4573	0	46020	37531	
4574	0	45120	36184	
4575	0	45956	28960	
4576	0	42244	29420	
4577	0	32496	32392	
4578	0	26864	24829	
4579	0	23974	21056	
4580	0	17786	19110	
4581	0	11308	19090	
4582	0	5038	27314	
4583	0	6778	36964	
4584	0	10092	42568	
4585	0	13040	40962	
4586	0	15565	35344	
4587	0	22180	22996	
4588	0	37804	23032	
4589	0	53752	32874	
4590	0	65440	45824	
4591	0	65466	49116	
4592	0	63368	36312	
4593	0	59226	28838	
4594	0	55744	23820	
4595	0	52772	25056	
4596	0	36354	33892	
4597	0	25280	40240	
4598	0	18008	40884	
4599	0	10572	36188	
4600	0	5665	33208	
4601	0	5044	32154	
4602	0	13820	29056	
4603	0	23730	30312	
4604	0	26440	30505	
4605	0	22802	32640	
4606	0	17106	39648	
4607	0	21232	38664	
4608	0	37440	30628	
4609	0	60072	30842	
4610	0	65472	35032	
4611	0	63192	33476	
4612	0	59096	29812	
4613	0	55628	34219	
4614	0	50072	29997	
4615	0	33336	30200	
4616	0	29284	35628	
4617	0	24786	41221	
4618	0	27504	32612	
4619	0	31960	20912	
4620	0	39496	21156	
4621	0	32490	27210	
4622	0	19938	26146	
4623	0	6890	27673	
4624	0	1172	30464	
4625	0	4668	35546	
4626	0	8413	39220	
4627	0	11618	38616	
4628	0	14363	30667	
4629	0	16714	32568	
4630	0	28082	37616	
4631	0	42524	41576	
4632	0	48297	43616	
4633	0	54496	40456	
4634	0	62196	36106	
4635	0	64872	34646	
4636	0	61624	32576	
4637	0	57824	25474	
4638	0	54578	26154	
4639	0	51776	31662	
4640	0	29848	32828	
4641	0	16138	31780	
4642	0	9437	36736	
4643	0	6672	39912	
4644	0	5751	31872	
4645	0	8471	22444	
4646	0	13512	25323	
4647	0	19544	28760	
4648	0	29898	30992	
4649	0	38218	25796	
4650	0	50796	24932	
4651	0	62992	36940	
4652	0	62280	45300	
4653	0	56672	40336	
4654	0	38440	27032	
4655	0	32595	26018	
4656	0	33566	28874	
4657	0	33130	35671	
4658	0	29060	31666	
4659	0	22900	31044	
4660	0	16920	33529	
4661	0	14420	38368	
4662	0	14236	38714	
4663	0	13684	32876	
4664	0	16056	29994	
4665	0	18842	34434	
4666	0	22200	36820	
4667	0	27120	32933	
4668	0	37112	29792	
4669	0	61648	31632	
4670	0	65478	36210	
4671	0	63356	37600	
4672	0	59224	34764	
4673	0	55736	30988	
4674	0	52760	34988	
4675	0	50209	37314	
4676	0	48010	34284	
4677	0	25400	26090	
4678	0	698	26556	
4679	0	0	25230	
4680	0	0	24301	
4681	0	3681	29649	
4682	0	7648	33582	
4683	0	10970	32888	
4684	0	13793	31168	
4685	0	34340	37424	
4686	0	44744	41824	
4687	0	46932	32904	
4688	0	39969	38328	
4689	0	28568	46010	
4690	0	26905	40705	
4691	0	37938	26544	
4692	0	44010	25154	
4693	0	54736	29152	
4694	0	60860	33284	
4695	0	56832	32862	
4696	0	50332	28211	
4697	0	37940	24832	
4698	0	27040	25600	
4699	0	19972	29912	
4700	0	13728	36992	
4701	0	6165	41776	
4702	0	6606	39464	
4703	0	9882	33756	
4704	0	12858	27960	
4705	0	15437	25071	
4706	0	23182	29940	
4707	0	61770	33052	
4708	0	65464	29952	
4709	0	65464	30010	
4710	0	62042	34311	
4711	0	58052	37478	
4712	0	54744	39805	
4713	0	51920	35276	
4714	0	49492	36070	
4715	0	22992	37508	
4716	0	10621	32234	
4717	0	0	28856	
4718	0	0	32556	
4719	0	3898	34372	
4720	0	7804	30888	
4721	0	11104	21640	
4722	0	13910	17598	
4723	0	16330	27289	
4724	0	18418	38208	
4725	0	22480	38212	
4726	0	35282	39480	
4727	0	38464	38074	
4728	0	41836	33808	
4729	0	45032	30284	
4730	0	45856	32157	
4731	0	49388	35384	
4732	0	52072	30640	
4733	0	48112	31840	
4734	0	42880	36062	
4735	0	41024	39276	
4736	0	47586	35552	
4737	0	49544	24424	
4738	0	47644	20428	
4739	0	48112	26464	
4740	0	44056	33728	
4741	0	36576	36018	
4742	0	28592	36870	
4743	0	28024	37538	
4744	0	37536	34212	
4745	0	46488	32564	
4746	0	44920	38047	
4747	0	40576	44848	
4748	0	39392	40256	
4749	0	40440	25012	
4750	0	38552	29168	
4751	0	33798	36520	
4752	0	26648	33004	
4753	0	17284	25448	
4754	0	6132	28240	
4755	0	0	30464	
4756	0	837	33024	
4757	0	5161	32696	
4758	0	8864	30768	
4759	0	11992	30921	
4760	0	14662	28024	
4761	0	25026	27770	
4762	0	40940	35777	
4763	0	48208	35906	
4764	0	51820	28166	
4765	0	51028	27708	
4766	0	47768	38408	
4767	0	45856	43730	
4768	0	44744	39090	
4769	0	44752	34813	
4770	0	43320	33119	
4771	0	41928	32000	
4772	0	43984	27929	
4773	0	49264	29496	
4774	0	47792	35071	
4775	0	40016	34752	
4776	0	29316	31510	
4777	0	22560	24197	
4778	0	16122	26524	
4779	0	9773	22614	
4780	0	8340	26474	
4781	0	16041	35937	
4782	0	24440	41350	
4783	0	34116	39992	
4784	0	39904	38440	
4785	0	47384	40008	
4786	0	54714	36648	
4787	0	55208	31164	
4788	0	54672	29074	
4789	0	52184	29152	
4790	0	46644	30305	
4791	0	37680	39160	
4792	0	29076	42064	
4793	0	23112	37004	
4794	0	13368	33496	
4795	0	2986	31194	
4796	0	0	23698	
4797	0	3277	22563	
4798	0	7267	29750	
4799	0	10629	37824	
4800	0	13504	40475	
4801	0	15968	35335	
4802	0	18105	26305	
4803	0	22468	23881	
4804	0	36266	28248	
4805	0	45304	30992	
4806	0	52256	32314	
4807	0	55898	37104	
4808	0	59520	38928	
4809	0	59456	36930	
4810	0	57225	34276	
4811	0	53984	31992	
4812	0	53388	27440	
4813	0	52024	29176	
4814	0	48160	31659	
4815	0	42640	29501	
4816	0	35952	32812	
4817	0	28872	36672	
4818	0	21641	37500	
4819	0	16515	37594	
4820	0	12654	37892	
4821	0	9432	32824	
4822	0	11162	28832	
4823	0	14176	27218	
4824	0	20544	32708	
4825	0	28222	34669	
4826	0	33592	33988	
4827	0	37868	39408	
4828	0	43512	34868	
4829	0	48640	32024	
4830	0	53408	33964	
4831	0	57232	26504	
4832	0	54832	14974	
4833	0	52080	26714	
4834	0	49618	35092	
4835	0	47496	39208	
4836	0	45661	35695	
4837	0	26900	33316	
4838	0	0	32580	
4839	0	0	36200	
4840	0	0	37344	
4841	0	2383	37355	
4842	0	6571	35659	
4843	0	10048	26772	
4844	0	12996	22117	
4845	0	23240	33120	
4846	0	40488	37560	
4847	0	47420	31936	
4848	0	51224	30624	
4849	0	52188	33064	
4850	0	49440	35803	
4851	0	43396	34864	
4852	0	40012	30980	
4853	0	38680	31954	
4854	0	40288	36400	
4855	0	42776	36871	
4856	0	40996	34637	
4857	0	39956	30288	
4858	0	39158	28901	
4859	0	37886	28434	
4860	0	33966	31808	
4861	0	29480	36104	
4862	0	25490	36428	
4863	0	23168	29000	
4864	0	19691	23722	
4865	0	19401	26338	
4866	0	24376	33796	
4867	0	31452	34290	
4868	0	35166	33060	
4869	0	33304	34454	
4870	0	30776	33360	
4871	0	27942	35606	
4872	0	27230	37895	
4873	0	25714	37594	
4874	0	24820	34667	
4875	0	29088	29053	
4876	0	34344	25250	
4877	0	40040	32800	
4878	0	42048	39240	
4879	0	39872	33026	
4880	0	38706	24638	
4881	0	39274	25621	
4882	0	36772	31866	
4883	0	35712	29456	
4884	0	39264	26434	
4885	0	42088	37112	
4886	0	40740	46376	
4887	0	38532	45400	
4888	0	37786	40777	
4889	0	38602	37156	
4890	0	42816	32121	
4891	0	49776	26496	
4892	0	50012	26351	
4893	0	48104	29566	
4894	0	46216	33416	
4895	0	44540	31746	
4896	0	21476	31256	
4897	0	3725	32436	
4898	0	0	33174	
4899	0	0	36332	
4900	0	1467	32253	
4901	0	5794	27232	
4902	0	9395	25707	
4903	0	12442	23674	
4904	0	15044	25472	
4905	0	37632	35880	
4906	0	54768	40968	
4907	0	62888	33684	
4908	0	65352	27992	
4909	0	62146	30846	
4910	0	58256	35640	
4911	0	54930	36555	
4912	0	52088	37568	
4913	0	39912	36564	
4914	0	22369	35402	
4915	0	10728	33650	
4916	0	4172	34748	
4917	0	11800	32160	
4918	0	27840	32092	
4919	0	40152	29952	
4920	0	49344	29516	
4921	0	55002	31708	
4922	0	53620	24904	
4923	0	51088	25412	
4924	0	41266	39188	
4925	0	31622	50400	
4926	0	21708	46340	
4927	0	13026	32548	
4928	0	5404	24118	
4929	0	15	26018	
4930	0	3072	28380	
4931	0	7043	31152	
4932	0	10442	31048	
4933	0	13344	31910	
4934	0	37016	33930	
4935	0	54916	33000	
4936	0	65458	31440	
4937	0	64378	30525	
4938	0	60304	27968	
4939	0	56656	28250	
4940	0	44512	32088	
4941	0	31736	33792	
4942	0	11011	33392	
4943	0	0	37240	
4944	0	4037	42360	
4945	0	14330	40288	
4946	0	20416	33032	
4947	0	25261	30242	
4948	0	36005	27248	
4949	0	53328	29700	
4950	0	63104	33244	
4951	0	60842	37992	
4952	0	57252	34254	
4953	0	54074	31444	
4954	0	40712	26418	
4955	0	5004	26400	
4956	0	0	30038	
4957	0	1736	32361	
4958	0	6027	33976	
4959	0	9611	33644	
4960	0	12650	32760	
4961	0	16522	31756	
4962	0	44780	31552	
4963	0	54328	32408	
4964	0	57080	32489	
4965	0	55044	34078	
4966	0	51024	37972	
4967	0	42672	37118	
4968	0	35552	34288	
4969	0	35378	34406	
4970	0	35760	37664	
4971	0	37050	35613	
4972	0	40076	29744	
4973	0	42240	26610	
4974	0	43576	35328	
4975	0	39788	36184	
4976	0	31332	27980	
4977	0	20561	18207	
4978	0	13650	24249	
4979	0	13240	34177	
4980	0	18176	36634	
4981	0	28512	39092	
4982	0	32856	39712	
4983	0	35236	38636	
4984	0	38826	36847	
4985	0	40784	35264	
4986	0	40864	29628	
4987	0	43018	28184	
4988	0	42644	23053	
4989	0	39318	24233	
4990	0	37330	29744	
4991	0	33024	41564	
4992	0	33076	43271	
4993	0	37112	35963	
4994	0	38752	32768	
4995	0	34322	31560	
4996	0	26347	35128	
4997	0	18488	34976	
4998	0	20002	28346	
4999	0	23234	23781	
5000	0	21486	24186	
5001	0	20288	27034	
5002	0	21588	31481	
5003	0	21707	37240	
5004	0	23776	38644	
5005	0	34560	36224	
5006	0	42792	36058	
5007	0	47616	34856	
5008	0	48430	30596	
5009	0	45446	29808	
5010	0	47680	30028	
5011	0	47736	31690	
5012	0	42768	31750	
5013	0	30785	34706	
5014	0	13110	38514	
5015	0	1678	36068	
5016	0	3986	26944	
5017	0	7790	26788	
5018	0	19099	36764	
5019	0	29324	40920	
5020	0	35128	30962	
5021	0	36224	25672	
5022	0	33808	35112	
5023	0	27803	38600	
5024	0	25711	35949	
5025	0	30920	35482	
5026	0	36658	35048	
5027	0	43680	28532	
5028	0	50260	22481	
5029	0	52432	25701	
5030	0	50052	32557	
5031	0	48400	33544	
5032	0	51667	29880	
5033	0	52068	31436	
5034	0	44800	34940	
5035	0	35640	34848	
5036	0	21872	34212	
5037	0	13410	34754	
5038	0	12138	35732	
5039	0	9182	35128	
5040	0	10853	35826	
5041	0	16432	33330	
5042	0	21412	32100	
5043	0	31568	33044	
5044	0	43666	30968	
5045	0	51804	31762	
5046	0	55080	35048	
5047	0	53194	32505	
5048	0	50183	31310	
5049	0	45504	31226	
5050	0	40320	30923	
5051	0	36928	31699	
5052	0	30838	33436	
5053	0	31698	29741	
5054	0	34061	30620	
5055	0	27328	33828	
5056	0	18456	34901	
5057	0	13193	30513	
5058	0	9268	30162	
5059	0	9277	32122	
5060	0	18237	33392	
5061	0	29224	35052	
5062	0	37848	37058	
5063	0	43496	36536	
5064	0	46288	34664	
5065	0	47320	34770	
5066	0	44640	33513	
5067	0	40184	30270	
5068	0	35933	27741	
5069	0	32964	28506	
5070	0	30408	31132	
5071	0	29904	35998	
5072	0	32157	39755	
5073	0	33568	38840	
5074	0	33888	32004	
5075	0	33113	31165	
5076	0	31649	30620	
5077	0	29362	24761	
5078	0	32088	26912	
5079	0	37588	31552	
5080	0	41682	28896	
5081	0	40820	29688	
5082	0	32256	37014	
5083	0	17824	38184	
5084	0	9964	35846	
5085	0	12916	32836	
5086	0	21512	30960	
5087	0	29054	31938	
5088	0	33640	31252	
5089	0	38098	31480	
5090	0	40136	34311	
5091	0	41764	35300	
5092	0	40996	33609	
5093	0	37280	35594	
5094	0	33640	33824	
5095	0	31312	31572	
5096	0	32379	37824	
5097	0	38408	43376	
5098	0	42266	31784	
5099	0	42120	23944	
5100	0	39048	26645	
5101	0	36146	28215	
5102	0	33988	30496	
5103	0	29732	31976	
5104	0	29000	34552	
5105	0	28733	34642	
5106	0	32184	34582	
5107	0	38456	33466	
5108	0	44072	31568	
5109	0	45864	33828	
5110	0	39400	36394	
5111	0	29888	33112	
5112	0	21176	31804	
5113	0	13276	29844	
5114	0	8384	33112	
5115	0	11068	33264	
5116	0	18628	32323	
5117	0	26208	31702	
5118	0	30168	32880	
5119	0	36188	30309	
5120	0	42852	32624	
5121	0	45115	34476	
5122	0	43420	33644	
5123	0	40217	35095	
5124	0	38725	31079	
5125	0	37464	26004	
5126	0	36900	30874	
5127	0	38280	35226	
5128	0	42098	32672	
5129	0	43200	33048	
5130	0	38779	34844	
5131	0	33267	33423	
5132	0	33744	33158	
5133	0	34856	35472	
5134	0	33328	34320	
5135	0	33944	32300	
5136	0	34492	32183	
5137	0	30084	33516	
5138	0	22248	32492	
5139	0	17736	31435	
5140	0	15160	33616	
5141	0	16282	35743	
5142	0	21084	33900	
5143	0	28505	30544	
5144	0	36200	30680	
5145	0	41402	30304	
5146	0	47352	29432	
5147	0	48306	32578	
5148	0	43656	33661	
5149	0	40506	32828	
5150	0	31604	34176	
5151	0	18777	35936	
5152	0	14322	34810	
5153	0	16002	31336	
5154	0	20912	30026	
5155	0	25588	31169	
5156	0	29610	32184	
5157	0	30104	33600	
5158	0	36032	36632	
5159	0	42682	35980	
5160	0	46826	32240	
5161	0	49664	31410	
5162	0	47140	31261	
5163	0	41964	33083	
5164	0	39448	33874	
5165	0	31540	33548	
5166	0	21378	33640	
5167	0	16468	32292	
5168	0	19320	30418	
5169	0	27056	30136	
5170	0	33630	30834	
5171	0	34800	31445	
5172	0	32668	32403	
5173	0	35334	30094	
5174	0	39458	33158	
5175	0	40540	36868	
5176	0	37860	37643	
5177	0	30138	33692	
5178	0	25629	32831	
5179	0	28290	34602	
5180	0	31453	32160	
5181	0	34200	31239	
5182	0	36154	34574	
5183	0	37056	31904	
5184	0	37020	28440	
5185	0	37268	23709	
5186	0	38344	24922	
5187	0	39882	31128	
5188	0	41436	35654	
5189	0	39824	36440	
5190	0	38288	37062	
5191	0	39136	37144	
5192	0	40552	35967	
5193	0	38740	33466	
5194	0	32985	31680	
5195	0	28928	30397	
5196	0	24438	30048	
5197	0	17740	32432	
5198	0	11800	33912	
5199	0	10248	32362	
5200	0	15549	32058	
5201	0	23380	33458	
5202	0	33877	33276	
5203	0	40220	33698	
5204	0	44008	33799	
5205	0	44146	33862	
5206	0	41576	32789	
5207	0	33276	32901	
5208	0	26378	32872	
5209	0	25568	32560	
5210	0	22316	32848	
5211	0	25560	34209	
5212	0	36460	34224	
5213	0	41776	33704	
5214	0	42394	33222	
5215	0	41186	32376	
5216	0	35124	31682	
5217	0	25352	29912	
5218	0	24170	31546	
5219	0	25772	32408	
5220	0	24681	32492	
5221	0	25680	32283	
5222	0	29184	33626	
5223	0	36348	32836	
5224	0	40616	31348	
5225	0	40224	29533	
5226	0	38844	30149	
5227	0	40517	30648	
5228	0	45008	32364	
5229	0	48804	32536	
5230	0	50336	32940	
5231	0	47544	33446	
5232	0	39868	30800	
5233	0	31298	29866	
5234	0	23976	32544	
5235	0	18166	34578	
5236	0	9786	34570	
5237	0	7084	34092	
5238	0	14172	34728	
5239	0	26212	34340	
5240	0	37792	35032	
5241	0	42960	33396	
5242	0	43330	33562	
5243	0	44166	34648	
5244	0	42256	33914	
5245	0	37224	32451	
5246	0	30808	34144	
5247	0	21081	34442	
5248	0	16149	32897	
5249	0	17934	31532	
5250	0	23244	31040	
5251	0	30089	29920	
5252	0	36240	30036	
5253	0	37824	31314	
5254	0	39512	31990	
5255	0	38710	33317	
5256	0	38330	32752	
5257	0	45770	30292	
5258	0	51656	31860	
5259	0	51856	33682	
5260	0	44060	36764	
5261	0	29024	35360	
5262	0	13649	31736	
5263	0	10308	32438	
5264	0	15115	32986	
5265	0	21336	32004	
5266	0	25296	32501	
5267	0	31116	34084	
5268	0	38954	34780	
5269	0	45258	34465	
5270	0	48904	33218	
5271	0	48648	31032	
5272	0	41778	30578	
5273	0	34066	30439	
5274	0	31704	31452	
5275	0	29930	32586	
5276	0	26844	33208	
5277	0	23604	33262	
5278	0	26160	32688	
5279	0	33630	32889	
5280	0	38560	32866	
5281	0	37074	32374	
5282	0	34056	32100	
5283	0	27924	31201	
5284	0	26256	30128	
5285	0	29848	31239	
5286	0	34452	33032	
5287	0	37888	33958	
5288	0	37917	33903	
5289	0	34822	33280	
5290	0	26976	33308	
5291	0	15777	33248	
5292	0	8784	32544	
5293	0	10642	33456	
5294	0	24309	34676	
5295	0	39996	33968	
5296	0	47288	33948	
5297	0	46331	33795	
5298	0	41788	32848	
5299	0	38164	32406	
5300	0	37800	31928	
5301	0	39064	28080	
5302	0	39504	28392	
5303	0	38860	32764	
5304	0	31744	35920	
5305	0	25808	36939	
5306	0	23498	36746	
5307	0	21672	34616	
5308	0	27004	31744	
5309	0	36754	31218	
5310	0	40536	32724	
5311	0	42476	33890	
5312	0	40618	33675	
5313	0	38165	33296	
5314	0	36148	29612	
5315	0	34414	31696	
5316	0	30072	32746	
5317	0	24854	32380	
5318	0	23872	29008	
5319	0	27256	28072	
5320	0	33704	32204	
5321	0	41120	31688	
5322	0	50234	29620	
5323	0	56192	30560	
5324	0	54720	34806	
5325	0	52056	37064	
5326	0	49640	37490	
5327	0	27564	36016	
5328	0	5742	35888	
5329	0	0	34464	
5330	0	0	30860	
5331	0	4056	28069	
5332	0	7971	31708	
5333	0	22850	35948	
5334	0	32536	36784	
5335	0	39576	35620	
5336	0	46720	35378	
5337	0	49032	32145	
5338	0	47728	29501	
5339	0	44768	29254	
5340	0	41792	28942	
5341	0	35097	29034	
5342	0	27122	31528	
5343	0	18520	33396	
5344	0	16417	34980	
5345	0	19272	33895	
5346	0	24736	30980	
5347	0	31981	28249	
5348	0	40152	28628	
5349	0	47152	30666	
5350	0	49692	33085	
5351	0	46852	35232	
5352	0	40460	36444	
5353	0	32944	36858	
5354	0	27460	36138	
5355	0	25704	34648	
5356	0	32144	32948	
5357	0	38512	31786	
5358	0	36416	30048	
5359	0	37357	30880	
5360	0	40743	32256	
5361	0	38048	33190	
5362	0	31112	32888	
5363	0	22289	30956	
5364	0	16056	32428	
5365	0	13357	34198	
5366	0	13017	34924	
5367	0	20292	35686	
5368	0	31868	35140	
5369	0	42748	34252	
5370	0	50184	34208	
5371	0	54932	33104	
5372	0	56526	32308	
5373	0	54084	31974	
5374	0	47344	32060	
5375	0	41220	29896	
5376	0	32788	29498	
5377	0	21016	30144	
5378	0	10496	31608	
5379	0	5988	34472	
5380	0	4866	34772	
5381	0	8869	34075	
5382	0	21738	34072	
5383	0	35090	32864	
5384	0	41202	32976	
5385	0	39913	33890	
5386	0	35076	34456	
5387	0	34194	34589	
5388	0	36880	33504	
5389	0	45156	30448	
5390	0	53472	25648	
5391	0	55867	26208	
5392	0	49578	28960	
5393	0	40432	31762	
5394	0	32786	34763	
5395	0	23040	35100	
5396	0	11982	33448	
5397	0	9729	32470	
5398	0	24398	32164	
5399	0	42680	32284	
5400	0	52948	32512	
5401	0	52892	32675	
5402	0	45896	32470	
5403	0	33556	32324	
5404	0	20153	32768	
5405	0	9324	35890	
5406	0	8312	34695	
5407	0	14636	36214	
5408	0	25240	39346	
5409	0	39788	42128	
5410	0	48688	38517	
5411	0	54240	28040	
5412	0	52024	24516	
5413	0	42200	28208	
5414	0	32212	33156	
5415	0	21670	33440	
5416	0	8910	28488	
5417	0	4533	28789	
5418	0	7729	31347	
5419	0	13646	33364	
5420	0	32714	33376	
5421	0	48024	33650	
5422	0	61466	35716	
5423	0	63520	36392	
5424	0	59896	33360	
5425	0	56327	30882	
5426	0	53276	30316	
5427	0	50656	31091	
5428	0	47996	31632	
5429	0	6674	31208	
5430	0	0	30796	
5431	0	0	31329	
5432	0	3166	30868	
5433	0	7235	31426	
5434	0	10620	33204	
5435	0	13497	33584	
5436	0	15969	34450	
5437	0	31730	33163	
5438	0	38275	33096	
5439	0	41140	34156	
5440	0	43748	33414	
5441	0	48604	32844	
5442	0	54968	32912	
5443	0	58076	32644	
5444	0	54598	31727	
5445	0	45476	31986	
5446	0	34569	33373	
5447	0	30618	34821	
5448	0	31200	33958	
5449	0	34648	33609	
5450	0	40254	33668	
5451	0	42898	33186	
5452	0	41092	33028	
5453	0	34784	32032	
5454	0	26064	32186	
5455	0	15241	33024	
5456	0	5951	34034	
5457	0	9896	32577	
5458	0	21572	33358	
5459	0	31048	31496	
5460	0	37064	30788	
5461	0	40208	32845	
5462	0	40616	33102	
5463	0	41496	32351	
5464	0	42288	31680	
5465	0	42052	31291	
5466	0	38873	31281	
5467	0	36716	33340	
5468	0	34292	35314	
5469	0	30176	34706	
5470	0	26898	33818	
5471	0	25284	31516	
5472	0	22562	29842	
5473	0	23424	31041	
5474	0	26160	34023	
5475	0	30568	33882	
5476	0	41580	32744	
5477	0	48146	32888	
5478	0	53258	33664	
5479	0	55814	32589	
5480	0	53202	31830	
5481	0	48352	31082	
5482	0	38936	31560	
5483	0	27284	30821	
5484	0	18531	30004	
5485	0	10693	31494	
5486	0	2138	32156	
5487	0	2836	35024	
5488	0	6740	37542	
5489	0	10190	37112	
5490	0	34448	33712	
5491	0	44288	30936	
5492	0	48080	28416	
5493	0	50296	29914	
5494	0	48942	30932	
5495	0	46068	32309	
5496	0	39846	31226	
5497	0	32706	30350	
5498	0	29396	33666	
5499	0	30404	36094	
5500	0	35202	38634	
5501	0	44568	38312	
5502	0	50045	34748	
5503	0	45586	31962	
5504	0	31900	32098	
5505	0	16345	29696	
5506	0	6368	28624	
5507	0	3144	29269	
5508	0	6621	31548	
5509	0	10072	33344	
5510	0	13026	35319	
5511	0	32762	35968	
5512	0	43500	34348	
5513	0	47994	31740	
5514	0	48450	31592	
5515	0	48600	32740	
5516	0	51000	33410	
5517	0	52162	31312	
5518	0	49492	29860	
5519	0	44168	30289	
5520	0	35680	32110	
5521	0	27196	33080	
5522	0	21914	33472	
5523	0	16401	33114	
5524	0	14276	32817	
5525	0	18804	32431	
5526	0	25154	33317	
5527	0	30856	32312	
5528	0	38774	32268	
5529	0	46356	31993	
5530	0	52272	32716	
5531	0	51108	33455	
5532	0	41732	34315	
5533	0	34488	32768	
5534	0	28332	31468	
5535	0	21500	31836	
5536	0	16629	32340	
5537	0	16738	32726	
5538	0	26460	31840	
5539	0	35416	32832	
5540	0	40048	33080	
5541	0	42924	33220	
5542	0	42380	32501	
5543	0	38074	32746	
5544	0	31112	33127	
5545	0	25608	33624	
5546	0	25664	32952	
5547	0	27576	32244	
5548	0	30740	32622	
5549	0	34034	33976	
5550	0	35360	33365	
5551	0	38232	32610	
5552	0	37296	32775	
5553	0	36200	33624	
5554	0	39104	32336	
5555	0	37368	31879	
5556	0	34748	31644	
5557	0	32064	31355	
5558	0	28220	32184	
5559	0	23980	33193	
5560	0	18636	33433	
5561	0	22404	33626	
5562	0	37080	33116	
5563	0	54338	34464	
5564	0	58360	35392	
5565	0	55815	34178	
5566	0	52937	32760	
5567	0	50380	32456	
5568	0	48160	32334	
5569	0	22960	32948	
5570	0	1754	33240	
5571	0	0	30712	
5572	0	0	29281	
5573	0	4006	29430	
5574	0	7924	30354	
5575	0	34336	33008	
5576	0	57704	32396	
5577	0	63448	33016	
5578	0	60208	32454	
5579	0	56648	31084	
5580	0	34714	32580	
5581	0	10057	37080	
5582	0	474	38722	
5583	0	3800	35634	
5584	0	7693	30982	
5585	0	11010	31794	
5586	0	13832	33771	
5587	0	16258	31312	
5588	0	33410	29572	
5589	0	52138	32144	
5590	0	59424	33648	
5591	0	61395	29880	
5592	0	58250	28224	
5593	0	51968	31182	
5594	0	45063	34011	
5595	0	38936	33440	
5596	0	32572	31426	
5597	0	30472	31512	
5598	0	30616	33369	
5599	0	30984	33355	
5600	0	31784	35369	
5601	0	32272	37675	
5602	0	31619	36998	
5603	0	32824	35525	
5604	0	35604	34286	
5605	0	35754	32552	
5606	0	33492	30080	
5607	0	29864	28189	
5608	0	28600	30580	
5609	0	31400	30426	
5610	0	34376	32263	
5611	0	35904	34138	
5612	0	38212	33364	
5613	0	38830	32262	
5614	0	38100	32244	
5615	0	33900	31382	
5616	0	31326	31412	
5617	0	29472	32979	
5618	0	28064	34428	
5619	0	22992	34330	
5620	0	20624	33386	
5621	0	22560	30607	
5622	0	29672	31596	
5623	0	39384	33144	
5624	0	48634	34112	
5625	0	51168	34816	
5626	0	43978	34216	
5627	0	33200	33720	
5628	0	22080	33197	
5629	0	14370	34242	
5630	0	7802	34324	
5631	0	5760	33252	
5632	0	11844	30466	
5633	0	22254	29332	
5634	0	33576	31456	
5635	0	41320	33089	
5636	0	45328	34760	
5637	0	47386	34588	
5638	0	46384	35071	
5639	0	45426	34692	
5640	0	41453	35014	
5641	0	34890	34068	
5642	0	27890	33253	
5643	0	26640	35190	
5644	0	28600	35702	
5645	0	34739	31984	
5646	0	41920	28336	
5647	0	45928	31680	
5648	0	44448	35688	
5649	0	38064	33194	
5650	0	27386	27232	
5651	0	17688	23044	
5652	0	12768	26405	
5653	0	15648	28338	
5654	0	21376	35076	
5655	0	29504	38368	
5656	0	38873	34930	
5657	0	44930	27348	
5658	0	44648	22886	
5659	0	42794	25157	
5660	0	37606	29756	
5661	0	29576	34244	
5662	0	21064	37062	
5663	0	14388	38116	
5664	0	14850	37935	
5665	0	20512	36001	
5666	0	29916	33868	
5667	0	36792	31875	
5668	0	41764	30461	
5669	0	47396	31548	
5670	0	51416	33384	
5671	0	53360	34796	
5672	0	49776	32598	
5673	0	42760	32362	
5674	0	41602	32690	
5675	0	39984	32429	
5676	0	30964	33434	
5677	0	22072	33944	
5678	0	21769	34672	
5679	0	31500	33482	
5680	0	40112	32870	
5681	0	41770	32707	
5682	0	37934	31816	
5683	0	32154	32076	
5684	0	25304	32492	
5685	0	19640	33652	
5686	0	14555	35632	
5687	0	15094	36384	
5688	0	16864	36208	
5689	0	21108	35816	
5690	0	24484	33296	
5691	0	25416	31556	
5692	0	30032	30592	
5693	0	34720	30356	
5694	0	38404	30898	
5695	0	41408	31460	
5696	0	41285	33024	
5697	0	37584	33581	
5698	0	33509	33962	
5699	0	31008	33579	
5700	0	29528	33104	
5701	0	29221	32297	
5702	0	35014	32508	
5703	0	46357	32632	
5704	0	54296	33676	
5705	0	54816	33896	
5706	0	50233	33202	
5707	0	41556	32664	
5708	0	32440	30333	
5709	0	24312	30020	
5710	0	18418	31428	
5711	0	16612	32857	
5712	0	18992	34388	
5713	0	22937	34408	
5714	0	29764	34036	
5715	0	33152	32863	
5716	0	31674	30878	
5717	0	27242	29720	
5718	0	21140	30324	
5719	0	17164	32434	
5720	0	17736	32483	
5721	0	22452	32062	
5722	0	28992	31886	
5723	0	39228	32768	
5724	0	48530	33596	
5725	0	51948	34308	
5726	0	51420	34460	
5727	0	48268	33313	
5728	0	42012	31067	
5729	0	35114	30170	
5730	0	29664	31300	
5731	0	28984	32892	
5732	0	33202	34100	
5733	0	39362	32406	
5734	0	45608	32176	
5735	0	52152	35708	
5736	0	51328	34853	
5737	0	46424	30408	
5738	0	40810	30088	
5739	0	33058	32596	
5740	0	27717	34008	
5741	0	20130	32626	
5742	0	12660	31484	
5743	0	9360	31818	
5744	0	9115	33151	
5745	0	10580	33702	
5746	0	12268	35058	
5747	0	15936	33648	
5748	0	21906	32398	
5749	0	31804	33100	
5750	0	48440	32856	
5751	0	62368	32120	
5752	0	62884	33914	
5753	0	55976	35384	
5754	0	46318	34080	
5755	0	34804	30857	
5756	0	25408	30148	
5757	0	17134	30520	
5758	0	10150	31660	
5759	0	5956	32440	
5760	0	9477	33006	
5761	0	18668	33792	
5762	0	23687	33234	
5763	0	29634	34858	
5764	0	35624	35626	
